idfile,id,block,trial,relCue,irrelCue,validity,targetLoc,relCueCol,gammaBlock,RT,correct,I,guessCue,Switch,Lamda,Gamma,pMUi,pMuNitI,pe,logRTmod,logRTexp
01_trials_model.mod,1,1,1,2,2,1,2,1,0.875,405.57,1,1,2,1,0,0.51,NA,NA,0.39141,-0.93801,6.0053
01_trials_model.mod,1,1,2,2,2,1,2,1,0.875,291.58,1,2,2,2,0,0.51,NA,NA,0.39141,-0.93801,5.6753
01_trials_model.mod,1,1,3,2,2,1,2,1,0.875,307.42,1,3,2,3,0,0.51,NA,NA,0.39141,-0.93801,5.7282
01_trials_model.mod,1,1,4,1,2,1,1,1,0.875,255.44,1,4,2,4,0,0.51,NA,NA,0.39141,-0.93801,5.543
01_trials_model.mod,1,1,5,1,1,1,1,1,0.875,312.35,1,5,2,5,0,0.51,NA,NA,0.39141,-0.93801,5.7441
01_trials_model.mod,1,1,6,2,2,1,2,1,0.875,272.99,1,6,2,6,0,0.51,NA,NA,0.39141,-0.93801,5.6094
01_trials_model.mod,1,1,7,2,1,0,1,1,0.875,369.86,1,1,1,7,0.7,0.51,NA,NA,0.39141,-0.93801,5.9131
01_trials_model.mod,1,1,8,2,2,1,2,1,0.875,304.78,1,2,1,8,0.76123,0.755,0.51234,0.1607,0.30589,-1.1845,5.7196
01_trials_model.mod,1,1,9,2,2,1,2,1,0.875,314.99,1,3,1,9,0.82144,0.83667,0.61351,0.13336,0.22345,-1.4986,5.7525
01_trials_model.mod,1,1,10,2,2,1,2,1,0.875,194.6,1,4,1,10,0.86642,0.8775,0.69064,0.10648,0.17293,-1.7549,5.2709
01_trials_model.mod,1,1,11,2,2,1,2,1,0.875,304.05,1,5,1,11,0.89623,0.902,0.74615,0.086392,0.13971,-1.9682,5.7172
01_trials_model.mod,1,1,12,2,2,1,2,1,0.875,321.27,1,6,1,12,0.91474,0.91833,0.78411,0.073082,0.11733,-2.1427,5.7723
01_trials_model.mod,1,1,13,1,1,1,1,1,0.875,282.98,1,7,1,13,0.92586,0.93,0.80944,0.064818,0.10188,-2.284,5.6454
01_trials_model.mod,1,1,14,2,1,0,1,1,0.875,370.7,1,8,1,14,0.73257,0.81375,0.16395,0.059853,0.72984,-0.31493,5.9154
01_trials_model.mod,1,1,15,1,2,1,1,1,0.875,255.6,1,9,1,15,0.8016,0.83444,0.59052,0.14616,0.23191,-1.4614,5.5436
01_trials_model.mod,1,1,16,1,1,0,2,1,0.875,359.68,1,10,1,16,0.62419,0.751,0.19156,0.11534,0.65667,-0.42057,5.8852
01_trials_model.mod,1,1,17,2,1,1,2,1,0.875,313.74,1,11,1,17,0.70839,0.77364,0.47262,0.19455,0.30616,-1.1837,5.7486
01_trials_model.mod,1,1,18,1,1,0,2,1,0.875,353.49,1,12,1,18,0.55973,0.70917,0.19954,0.15695,0.61708,-0.48276,5.8679
01_trials_model.mod,1,1,19,1,1,1,1,1,0.875,329.74,1,13,1,19,0.64445,0.73154,0.40479,0.22333,0.35079,-1.0476,5.7983
01_trials_model.mod,1,1,20,2,2,1,2,1,0.875,291.99,1,14,1,20,0.71795,0.75071,0.47219,0.1855,0.32,-1.1394,5.6767
01_trials_model.mod,1,1,21,1,2,1,1,1,0.875,263.87,1,15,1,21,0.77733,0.76733,0.53301,0.15269,0.29219,-1.2303,5.5755
01_trials_model.mod,1,1,22,1,2,1,1,1,0.875,281.02,1,16,1,22,0.82248,0.78188,0.58457,0.12617,0.26816,-1.3162,5.6384
01_trials_model.mod,1,1,23,1,1,0,2,1,0.875,269.07,1,17,1,23,0.66252,0.73588,0.20812,0.10601,0.65628,-0.42117,5.595
01_trials_model.mod,1,1,24,1,2,1,1,1,0.875,280.89,1,18,1,24,0.73183,0.75056,0.48421,0.17744,0.31664,-1.15,5.638
01_trials_model.mod,1,1,25,1,2,1,1,1,0.875,310.65,1,19,1,25,0.78659,0.76368,0.53994,0.14649,0.29259,-1.229,5.7387
01_trials_model.mod,1,1,26,2,2,1,2,1,0.875,287.48,1,20,1,26,0.82769,0.7755,0.58622,0.12204,0.27197,-1.3021,5.6612
01_trials_model.mod,1,1,27,1,2,1,1,1,0.875,255.31,1,21,1,27,0.85735,0.78619,0.62316,0.10368,0.25463,-1.3679,5.5425
01_trials_model.mod,1,1,28,1,1,1,1,1,0.875,291.52,1,22,1,28,0.87817,0.79591,0.65194,0.090443,0.24014,-1.4265,5.6751
01_trials_model.mod,1,1,29,1,2,1,1,1,0.875,276.68,1,23,1,29,0.89257,0.80478,0.67417,0.081146,0.22796,-1.4786,5.6229
01_trials_model.mod,1,1,30,1,1,1,1,1,0.875,342.96,1,24,1,30,0.90248,0.81292,0.69144,0.074718,0.2176,-1.5251,5.8376
01_trials_model.mod,1,1,31,2,2,1,2,1,0.875,314.03,1,25,1,31,0.90934,0.8204,0.70506,0.070294,0.20865,-1.5671,5.7495
01_trials_model.mod,1,1,32,1,2,1,1,1,0.875,287.29,1,26,1,32,0.91417,0.82731,0.71607,0.06723,0.20078,-1.6055,5.6605
01_trials_model.mod,1,1,33,2,2,1,2,1,0.875,308.04,1,27,1,33,0.91766,0.8337,0.7252,0.065072,0.19377,-1.6411,5.7302
01_trials_model.mod,1,1,34,2,1,1,2,1,0.875,320.77,1,28,1,34,0.92026,0.83964,0.73298,0.063515,0.18744,-1.6743,5.7707
01_trials_model.mod,1,1,35,2,2,1,2,1,0.875,329.84,1,29,1,35,0.92226,0.84517,0.73977,0.062355,0.18166,-1.7056,5.7986
01_trials_model.mod,1,1,36,2,1,1,2,1,0.875,287.38,1,30,1,36,0.92387,0.85033,0.74581,0.061459,0.17634,-1.7354,5.6608
01_trials_model.mod,1,1,37,1,1,0,2,1,0.875,380.09,1,31,1,37,0.71921,0.8229,0.15558,0.060743,0.73223,-0.31166,5.9404
01_trials_model.mod,1,1,38,1,2,1,1,1,0.875,323.19,1,32,1,38,0.79118,0.82844,0.57639,0.15212,0.24015,-1.4265,5.7782
01_trials_model.mod,1,1,39,2,2,1,2,1,0.875,336.62,1,33,1,39,0.84078,0.83364,0.63359,0.11999,0.21949,-1.5165,5.819
01_trials_model.mod,1,1,40,1,1,1,1,1,0.875,316.69,1,34,1,40,0.87331,0.83853,0.67444,0.097843,0.20436,-1.5879,5.7579
01_trials_model.mod,1,1,41,2,2,1,2,1,0.875,298.35,1,35,1,41,0.89399,0.84314,0.70264,0.083318,0.19323,-1.6439,5.6983
01_trials_model.mod,1,1,42,2,2,1,2,1,0.875,306.97,1,36,1,42,0.90693,0.8475,0.72193,0.074082,0.18484,-1.6883,5.7268
01_trials_model.mod,1,1,43,2,1,1,2,1,0.875,289.58,1,37,1,43,0.915,0.85162,0.73528,0.068304,0.17827,-1.7245,5.6684
01_trials_model.mod,1,1,44,1,1,1,1,1,0.875,276.4,1,38,1,44,0.92007,0.85553,0.74482,0.064702,0.17289,-1.7551,5.6218
01_trials_model.mod,1,1,45,2,1,1,2,1,0.875,264.99,1,39,1,45,0.92333,0.85923,0.75194,0.062437,0.16831,-1.7819,5.5797
01_trials_model.mod,1,1,46,1,1,1,1,1,0.875,252.57,1,40,1,46,0.9255,0.86275,0.75753,0.060982,0.16428,-1.8062,5.5317
01_trials_model.mod,1,1,47,1,1,1,1,1,0.875,282.64,1,41,1,47,0.927,0.8661,0.76214,0.060016,0.16063,-1.8287,5.6442
01_trials_model.mod,1,1,48,1,2,1,1,1,0.875,296.65,1,42,1,48,0.92811,0.86929,0.76611,0.059343,0.15726,-1.8498,5.6926
01_trials_model.mod,1,2,1,2,1,0,1,2,0.84694,294.72,1,43,1,49,0.92897,0.87233,0.76965,0.058849,0.15412,-1.87,5.686
01_trials_model.mod,1,2,2,2,2,0,1,2,0.84694,406.72,1,44,1,50,0.6902,0.8525,0.13025,0.058465,0.7433,-0.29666,6.0081
01_trials_model.mod,1,2,3,2,2,1,2,2,0.84694,295.11,1,45,1,51,0.77642,0.85578,0.57324,0.16508,0.22377,-1.4971,5.6873
01_trials_model.mod,1,2,4,1,1,1,1,2,0.84694,280.15,1,46,1,52,0.83519,0.85891,0.64147,0.12658,0.20024,-1.6082,5.6353
01_trials_model.mod,1,2,5,1,2,1,1,2,0.84694,NA,2,47,1,53,0.55939,0.84064,0.12738,0.10034,0.69055,-0.37027,NA
01_trials_model.mod,1,2,6,2,2,1,2,2,0.84694,323.39,1,48,1,54,0.67621,0.84396,0.46674,0.22348,0.26741,-1.319,5.7789
01_trials_model.mod,1,2,7,2,2,1,2,2,0.84694,306.01,1,49,1,55,0.76473,0.84714,0.55688,0.17132,0.23453,-1.4502,5.7236
01_trials_model.mod,1,2,8,2,2,1,2,2,0.84694,294.88,1,50,1,56,0.8261,0.8502,0.62609,0.1318,0.2107,-1.5573,5.6866
01_trials_model.mod,1,2,9,2,2,0,1,2,0.84694,424.1,1,51,1,57,0.55785,0.83353,0.13171,0.1044,0.68606,-0.37679,6.05
01_trials_model.mod,1,2,10,1,1,1,1,2,0.84694,254.04,1,52,1,58,0.67311,0.83673,0.46159,0.22417,0.27334,-1.297,5.5375
01_trials_model.mod,1,2,11,1,1,1,1,2,0.84694,236.65,1,53,1,59,0.76094,0.83981,0.54973,0.17271,0.24143,-1.4212,5.4666
01_trials_model.mod,1,2,12,1,1,1,1,2,0.84694,273.97,1,54,1,60,0.82231,0.84278,0.61777,0.13349,0.21813,-1.5227,5.613
01_trials_model.mod,1,2,13,1,1,1,1,2,0.84694,254.88,1,55,1,61,0.86263,0.84564,0.66621,0.10609,0.20184,-1.6003,5.5408
01_trials_model.mod,1,2,14,1,2,0,2,2,0.84694,379.43,1,56,1,62,0.88808,0.84839,0.69893,0.088084,0.1906,-1.6576,5.9387
01_trials_model.mod,1,2,15,1,1,0,2,2,0.84694,369.73,1,57,1,63,0.64752,0.83351,0.14094,0.076723,0.71595,-0.33414,5.9128
01_trials_model.mod,1,2,16,2,1,1,2,2,0.84694,297.02,1,58,1,1,0.38291,0.81914,0.11426,0.18413,0.6222,-0.47449,5.6938
01_trials_model.mod,1,2,17,1,1,0,2,2,0.84694,390.83,1,59,1,2,0,0.51,NA,NA,0.39141,-0.93801,5.9683
01_trials_model.mod,1,2,18,1,2,1,1,2,0.84694,277.44,1,60,1,3,0,0.51,NA,NA,0.39141,-0.93801,5.6256
01_trials_model.mod,1,2,19,1,1,1,1,2,0.84694,282.36,1,61,1,4,0,0.51,NA,NA,0.39141,-0.93801,5.6432
01_trials_model.mod,1,2,20,1,1,1,1,2,0.84694,334.91,1,62,1,5,0,0.51,NA,NA,0.39141,-0.93801,5.8139
01_trials_model.mod,1,2,21,1,2,1,1,2,0.84694,349.89,1,63,1,6,0,0.51,NA,NA,0.39141,-0.93801,5.8576
01_trials_model.mod,1,2,22,2,2,1,2,2,0.84694,369.01,1,1,2,7,0.7,0.51,NA,NA,0.39141,-0.93801,5.9108
01_trials_model.mod,1,2,23,1,1,1,1,2,0.84694,306.22,1,2,2,8,0.76123,0.755,0.51234,0.1607,0.30589,-1.1845,5.7243
01_trials_model.mod,1,2,24,1,1,1,1,2,0.84694,330.11,1,3,2,9,0.82144,0.83667,0.61351,0.13336,0.22345,-1.4986,5.7994
01_trials_model.mod,1,2,25,1,1,1,1,2,0.84694,359.1,1,4,2,10,0.86642,0.8775,0.69064,0.10648,0.17293,-1.7549,5.8836
01_trials_model.mod,1,2,26,1,2,1,1,2,0.84694,295.98,1,5,2,11,0.89623,0.902,0.74615,0.086392,0.13971,-1.9682,5.6903
01_trials_model.mod,1,2,27,2,1,1,2,2,0.84694,332.5,1,6,2,12,0.91474,0.91833,0.78411,0.073082,0.11733,-2.1427,5.8066
01_trials_model.mod,1,2,28,2,2,1,2,2,0.84694,373.69,1,7,2,13,0.92586,0.93,0.80944,0.064818,0.10188,-2.284,5.9234
01_trials_model.mod,1,2,29,1,1,1,1,2,0.84694,362.98,1,8,2,14,0.93246,0.93875,0.82638,0.059853,0.090882,-2.3982,5.8943
01_trials_model.mod,1,2,30,2,2,1,2,2,0.84694,358.3,1,9,2,15,0.93641,0.94556,0.83794,0.056905,0.082778,-2.4916,5.8814
01_trials_model.mod,1,2,31,1,2,1,1,2,0.84694,315.36,1,10,2,16,0.93882,0.951,0.84612,0.055143,0.076594,-2.5692,5.7537
01_trials_model.mod,1,2,32,2,1,1,2,2,0.84694,352.85,1,11,2,17,0.94033,0.95545,0.85213,0.054069,0.07172,-2.635,5.866
01_trials_model.mod,1,2,33,2,2,1,2,2,0.84694,299.52,1,12,2,18,0.94134,0.95917,0.85675,0.05339,0.067769,-2.6917,5.7022
01_trials_model.mod,1,2,34,2,1,1,2,2,0.84694,375.68,1,13,2,19,0.94204,0.96231,0.86041,0.052942,0.06449,-2.7413,5.9287
01_trials_model.mod,1,2,35,1,2,1,1,2,0.84694,287.52,1,14,2,20,0.94255,0.965,0.86342,0.052631,0.061716,-2.7852,5.6613
01_trials_model.mod,1,2,36,2,2,1,2,2,0.84694,345.84,1,15,2,21,0.94294,0.96733,0.86595,0.052403,0.059333,-2.8246,5.846
01_trials_model.mod,1,2,37,1,1,1,1,2,0.84694,305.34,1,16,2,22,0.94325,0.96937,0.86812,0.052228,0.057261,-2.8601,5.7214
01_trials_model.mod,1,2,38,1,1,1,1,2,0.84694,317.08,1,17,2,23,0.94351,0.97118,0.87,0.052088,0.05544,-2.8925,5.7592
01_trials_model.mod,1,2,39,2,2,1,2,2,0.84694,295.56,1,18,2,24,0.94373,0.97278,0.87166,0.051972,0.053825,-2.922,5.6889
01_trials_model.mod,1,2,40,2,2,1,2,2,0.84694,346.67,1,19,2,25,0.94392,0.97421,0.87314,0.051874,0.052383,-2.9492,5.8484
01_trials_model.mod,1,2,41,1,1,1,1,2,0.84694,319.82,1,20,2,26,0.94409,0.9755,0.87446,0.051789,0.051086,-2.9742,5.7678
01_trials_model.mod,1,2,42,2,1,1,2,2,0.84694,320.73,1,21,2,27,0.94423,0.97667,0.87565,0.051715,0.049915,-2.9974,5.7706
01_trials_model.mod,1,2,43,2,2,1,2,2,0.84694,309.83,1,22,2,28,0.94437,0.97773,0.87673,0.051649,0.04885,-3.019,5.736
01_trials_model.mod,1,2,44,1,1,1,1,2,0.84694,325.69,1,23,2,29,0.94449,0.9787,0.87771,0.05159,0.047879,-3.0391,5.7859
01_trials_model.mod,1,2,45,2,2,1,2,2,0.84694,344.07,1,24,2,30,0.94459,0.97958,0.87861,0.051537,0.046989,-3.0578,5.8408
01_trials_model.mod,1,2,46,1,2,1,1,2,0.84694,379.24,1,25,2,31,0.94469,0.9804,0.87944,0.051489,0.046171,-3.0754,5.9382
01_trials_model.mod,1,2,47,1,1,0,2,2,0.84694,432.17,1,26,2,1,0.49984,0.94269,0.051411,0.051445,0.72127,-0.32674,6.0688
01_trials_model.mod,1,2,48,1,2,0,2,2,0.84694,395.57,1,27,2,2,0,0.51,NA,NA,0.39141,-0.93801,5.9803
01_trials_model.mod,1,2,49,2,2,1,2,2,0.84694,436.57,1,28,2,3,0,0.51,NA,NA,0.39141,-0.93801,6.0789
01_trials_model.mod,1,2,50,1,2,1,1,2,0.84694,450.6,1,29,2,4,0,0.51,NA,NA,0.39141,-0.93801,6.1106
01_trials_model.mod,1,2,51,1,1,1,1,2,0.84694,360.38,1,30,2,5,0,0.51,NA,NA,0.39141,-0.93801,5.8872
01_trials_model.mod,1,2,52,2,1,1,2,2,0.84694,283.07,1,31,2,6,0,0.51,NA,NA,0.39141,-0.93801,5.6457
01_trials_model.mod,1,2,53,1,2,1,1,2,0.84694,359.82,1,1,2,7,0.7,0.51,NA,NA,0.39141,-0.93801,5.8856
01_trials_model.mod,1,2,54,2,2,1,2,2,0.84694,325.74,1,2,2,8,0.76123,0.755,0.51234,0.1607,0.30589,-1.1845,5.7861
01_trials_model.mod,1,2,55,2,2,1,2,2,0.84694,300.95,1,3,2,9,0.82144,0.83667,0.61351,0.13336,0.22345,-1.4986,5.7069
01_trials_model.mod,1,2,56,2,2,1,2,2,0.84694,385.4,1,4,2,10,0.86642,0.8775,0.69064,0.10648,0.17293,-1.7549,5.9543
01_trials_model.mod,1,2,57,2,1,1,2,2,0.84694,322.79,1,5,2,11,0.89623,0.902,0.74615,0.086392,0.13971,-1.9682,5.777
01_trials_model.mod,1,2,58,1,2,0,2,2,0.84694,437.29,1,6,2,12,0.74368,0.75167,0.21204,0.073082,0.68716,-0.37519,6.0806
01_trials_model.mod,1,2,59,1,2,1,1,2,0.84694,312.8,1,7,2,13,0.80002,0.78714,0.56486,0.1412,0.27028,-1.3083,5.7456
01_trials_model.mod,1,2,60,2,2,1,2,2,0.84694,457.21,1,8,2,14,0.84338,0.81375,0.62489,0.11604,0.23539,-1.4465,6.1251
01_trials_model.mod,1,2,61,2,2,1,2,2,0.84694,301.86,1,9,2,15,0.87441,0.83444,0.6731,0.096679,0.20756,-1.5723,5.71
01_trials_model.mod,1,2,62,1,1,1,1,2,0.84694,1474.5,1,10,2,16,0.89553,0.851,0.71003,0.082827,0.18567,-1.6838,7.2961
01_trials_model.mod,1,2,63,2,2,1,2,2,0.84694,343.4,1,11,2,17,0.90951,0.86455,0.73764,0.073394,0.16844,-1.7812,5.8389
01_trials_model.mod,1,2,64,2,1,0,1,2,0.84694,386.88,1,12,2,18,0.72788,0.7925,0.17963,0.067155,0.7129,-0.33841,5.9581
01_trials_model.mod,1,2,65,2,2,1,2,2,0.84694,324.38,1,13,2,19,0.79323,0.80846,0.56875,0.14825,0.25532,-1.3652,5.7819
01_trials_model.mod,1,2,66,2,2,1,2,2,0.84694,324.79,1,14,2,20,0.84027,0.82214,0.62636,0.11907,0.22931,-1.4727,5.7832
01_trials_model.mod,1,2,67,2,2,1,2,2,0.84694,358.02,1,15,2,21,0.87238,0.834,0.67042,0.098071,0.20862,-1.5672,5.8806
01_trials_model.mod,1,2,68,2,2,1,2,2,0.84694,338,1,16,2,22,0.89357,0.84437,0.70298,0.08373,0.19228,-1.6488,5.823
01_trials_model.mod,1,2,69,1,2,0,2,2,0.84694,383.34,1,17,2,23,0.70181,0.79471,0.1748,0.074271,0.70683,-0.34697,5.9489
01_trials_model.mod,1,2,70,1,2,1,1,2,0.84694,308.31,1,18,2,24,0.77423,0.80611,0.54833,0.15989,0.263,-1.3356,5.7311
01_trials_model.mod,1,2,71,2,1,1,2,2,0.84694,328.48,1,19,2,25,0.8266,0.81632,0.60807,0.12756,0.23853,-1.4332,5.7945
01_trials_model.mod,1,2,72,1,1,1,1,2,0.84694,338.88,1,20,2,26,0.86251,0.8255,0.65351,0.10417,0.21925,-1.5175,5.8256
01_trials_model.mod,1,2,73,2,1,1,2,2,0.84694,296.18,1,21,2,27,0.88627,0.83381,0.68683,0.088138,0.20416,-1.5889,5.691
01_trials_model.mod,1,2,74,1,1,1,1,2,0.84694,312.61,1,22,2,28,0.90166,0.84136,0.7109,0.077531,0.1922,-1.6492,5.745
01_trials_model.mod,1,2,75,2,1,1,2,2,0.84694,361.16,1,23,2,29,0.91157,0.84826,0.72839,0.070656,0.18253,-1.7008,5.8893
01_trials_model.mod,1,2,76,1,1,1,1,2,0.84694,295.41,1,24,2,30,0.91799,0.85458,0.74138,0.066232,0.1745,-1.7459,5.6884
01_trials_model.mod,1,2,77,1,1,1,1,2,0.84694,310.45,1,25,2,31,0.92222,0.8604,0.75136,0.063367,0.16763,-1.786,5.738
01_trials_model.mod,1,2,78,2,2,1,2,2,0.84694,294.99,1,26,2,32,0.9251,0.86577,0.75932,0.061477,0.16163,-1.8225,5.6869
01_trials_model.mod,1,2,79,1,2,1,1,2,0.84694,391.55,1,27,2,33,0.92714,0.87074,0.76592,0.060192,0.15627,-1.8562,5.9701
01_trials_model.mod,1,2,80,2,1,1,2,2,0.84694,452.41,1,28,2,34,0.92865,0.87536,0.77157,0.059283,0.15143,-1.8877,6.1146
01_trials_model.mod,1,2,81,2,1,1,2,2,0.84694,433.47,1,29,2,35,0.92982,0.87966,0.77655,0.058608,0.14699,-1.9174,6.0718
01_trials_model.mod,1,2,82,1,2,1,1,2,0.84694,310.47,1,30,2,36,0.93078,0.88367,0.78101,0.058084,0.14289,-1.9457,5.7381
01_trials_model.mod,1,2,83,1,1,0,2,2,0.84694,339.38,1,31,2,37,0.68967,0.85516,0.12814,0.057657,0.74494,-0.29445,5.8271
01_trials_model.mod,1,2,84,2,1,1,2,2,0.84694,392.01,1,32,2,38,0.77684,0.85969,0.57546,0.16531,0.22058,-1.5115,5.9713
01_trials_model.mod,1,2,85,1,2,1,1,2,0.84694,390.57,1,33,2,39,0.83627,0.86394,0.64555,0.12639,0.19565,-1.6314,5.9676
01_trials_model.mod,1,2,86,1,2,1,1,2,0.84694,352.87,1,34,2,40,0.87431,0.86794,0.6946,0.099856,0.17831,-1.7243,5.8661
01_trials_model.mod,1,2,87,1,1,0,2,2,0.84694,518.18,1,35,2,41,0.61226,0.84314,0.13086,0.082871,0.71009,-0.34236,6.2503
01_trials_model.mod,1,2,88,1,2,1,1,2,0.84694,366.32,1,36,2,42,0.71793,0.8475,0.50871,0.19987,0.25052,-1.3842,5.9035
01_trials_model.mod,1,2,89,1,2,1,1,2,0.84694,639.05,1,37,2,43,0.79483,0.85162,0.59154,0.1527,0.22052,-1.5118,6.46
01_trials_model.mod,1,2,90,2,1,1,2,2,0.84694,371.72,1,38,2,44,0.84656,0.85553,0.65301,0.11836,0.19903,-1.6143,5.9181
01_trials_model.mod,1,2,91,1,1,1,1,2,0.84694,353.67,1,39,2,45,0.87954,0.85923,0.69553,0.09526,0.18404,-1.6926,5.8684
01_trials_model.mod,1,2,92,1,2,1,1,2,0.84694,313.47,1,40,2,46,0.89987,0.86275,0.72378,0.080536,0.17357,-1.7512,5.7477
01_trials_model.mod,1,2,93,1,1,1,1,2,0.84694,341.36,1,41,2,47,0.91219,0.8661,0.74232,0.071457,0.16605,-1.7955,5.8329
01_trials_model.mod,1,2,94,2,1,1,2,2,0.84694,366.68,1,42,2,48,0.91962,0.86929,0.75462,0.065957,0.1604,-1.8301,5.9045
01_trials_model.mod,1,2,95,1,1,0,2,2,0.84694,401.91,1,43,2,49,0.67822,0.84907,0.13202,0.062639,0.73674,-0.30551,5.9962
01_trials_model.mod,1,2,96,2,2,1,2,2,0.84694,308,1,44,2,50,0.76729,0.8525,0.56192,0.17043,0.22953,-1.4717,5.7301
01_trials_model.mod,1,2,97,1,2,1,1,2,0.84694,354.03,1,45,2,51,0.82872,0.85578,0.63215,0.13066,0.20516,-1.584,5.8694
01_trials_model.mod,1,2,98,1,1,0,2,2,0.84694,477.53,1,46,2,52,0.55589,0.83717,0.12921,0.10323,0.68743,-0.37479,6.1686
01_trials_model.mod,1,3,1,1,2,1,1,1,0.875,NA,3,47,2,1,0.30623,0.81936,0.099335,0.22504,0.5978,-0.5145,NA
01_trials_model.mod,1,3,2,2,2,1,2,1,0.875,342.82,1,48,2,2,0,0.51,NA,NA,0.39141,-0.93801,5.8372
01_trials_model.mod,1,3,3,2,2,1,2,1,0.875,348.92,1,49,2,3,0,0.51,NA,NA,0.39141,-0.93801,5.8548
01_trials_model.mod,1,3,4,2,2,1,2,1,0.875,323.79,1,50,2,4,0,0.51,NA,NA,0.39141,-0.93801,5.7801
01_trials_model.mod,1,3,5,2,1,1,2,1,0.875,403.97,1,51,2,5,0,0.51,NA,NA,0.39141,-0.93801,6.0013
01_trials_model.mod,1,3,6,2,1,1,2,1,0.875,441.26,1,52,2,6,0,0.51,NA,NA,0.39141,-0.93801,6.0896
01_trials_model.mod,1,3,7,2,1,0,1,1,0.875,326.65,1,1,1,7,0.7,0.51,NA,NA,0.39141,-0.93801,5.7889
01_trials_model.mod,1,3,8,2,1,1,2,1,0.875,412.07,1,2,1,8,0.76123,0.755,0.51234,0.1607,0.30589,-1.1845,6.0212
01_trials_model.mod,1,3,9,1,2,1,1,1,0.875,384.36,1,3,1,9,0.82144,0.83667,0.61351,0.13336,0.22345,-1.4986,5.9516
01_trials_model.mod,1,3,10,2,1,1,2,1,0.875,360.01,1,4,1,10,0.86642,0.8775,0.69064,0.10648,0.17293,-1.7549,5.8861
01_trials_model.mod,1,3,11,1,2,1,1,1,0.875,320.97,1,5,1,11,0.89623,0.902,0.74615,0.086392,0.13971,-1.9682,5.7713
01_trials_model.mod,1,3,12,2,1,1,2,1,0.875,414.21,1,6,1,12,0.91474,0.91833,0.78411,0.073082,0.11733,-2.1427,6.0264
01_trials_model.mod,1,3,13,1,1,1,1,1,0.875,390.97,1,7,1,13,0.92586,0.93,0.80944,0.064818,0.10188,-2.284,5.9686
01_trials_model.mod,1,3,14,1,2,1,1,1,0.875,507.01,1,8,1,14,0.93246,0.93875,0.82638,0.059853,0.090882,-2.3982,6.2285
01_trials_model.mod,1,3,15,1,2,1,1,1,0.875,397.44,1,9,1,15,0.93641,0.94556,0.83794,0.056905,0.082778,-2.4916,5.985
01_trials_model.mod,1,3,16,1,2,1,1,1,0.875,411.93,1,10,1,16,0.93882,0.951,0.84612,0.055143,0.076594,-2.5692,6.0209
01_trials_model.mod,1,3,17,2,1,1,2,1,0.875,350.46,1,11,1,17,0.94033,0.95545,0.85213,0.054069,0.07172,-2.635,5.8592
01_trials_model.mod,1,3,18,2,1,0,1,1,0.875,426.69,1,12,1,18,0.67504,0.87583,0.11091,0.05339,0.7537,-0.28276,6.0561
01_trials_model.mod,1,3,19,1,2,0,2,1,0.875,411.4,1,13,1,1,0.42248,0.80846,0.12571,0.17184,0.63032,-0.46153,6.0196
01_trials_model.mod,1,3,20,2,1,1,2,1,0.875,413.04,1,14,1,2,0,0.51,NA,NA,0.39141,-0.93801,6.0235
01_trials_model.mod,1,3,21,2,2,1,2,1,0.875,322.44,1,15,1,3,0,0.51,NA,NA,0.39141,-0.93801,5.7759
01_trials_model.mod,1,3,22,2,2,0,1,1,0.875,571.38,1,16,1,4,0,0.51,NA,NA,0.39141,-0.93801,6.3481
01_trials_model.mod,1,3,23,1,1,1,1,1,0.875,437.52,1,17,1,5,0,0.51,NA,NA,0.39141,-0.93801,6.0811
01_trials_model.mod,1,3,24,2,2,1,2,1,0.875,307.27,1,18,1,6,0,0.51,NA,NA,0.39141,-0.93801,5.7277
01_trials_model.mod,1,3,25,2,2,1,2,1,0.875,407.07,1,1,1,7,0.7,0.51,NA,NA,0.39141,-0.93801,6.009
01_trials_model.mod,1,3,26,2,2,1,2,1,0.875,389.79,1,2,1,8,0.76123,0.755,0.51234,0.1607,0.30589,-1.1845,5.9656
01_trials_model.mod,1,3,27,1,1,1,1,1,0.875,325.51,1,3,1,9,0.82144,0.83667,0.61351,0.13336,0.22345,-1.4986,5.7854
01_trials_model.mod,1,3,28,2,1,0,1,1,0.875,395.65,1,4,1,10,0.73358,0.6275,0.29318,0.10648,0.59353,-0.52167,5.9805
01_trials_model.mod,1,3,29,1,1,1,1,1,0.875,305.28,1,5,1,11,0.77344,0.702,0.49743,0.14571,0.34376,-1.0678,5.7212
01_trials_model.mod,1,3,30,2,1,1,2,1,0.875,385.93,1,6,1,12,0.81389,0.75167,0.55938,0.12791,0.29517,-1.2202,5.9557
01_trials_model.mod,1,3,31,2,2,1,2,1,0.875,353.86,1,7,1,13,0.84829,0.78714,0.61421,0.10985,0.25642,-1.3609,5.8689
01_trials_model.mod,1,3,32,2,2,1,2,1,0.875,405.62,1,8,1,14,0.87476,0.81375,0.65997,0.094487,0.22554,-1.4892,6.0054
01_trials_model.mod,1,3,33,1,1,1,1,1,0.875,313.33,1,9,1,15,0.8939,0.83444,0.69648,0.082669,0.20104,-1.6042,5.7473
01_trials_model.mod,1,3,34,2,2,1,2,1,0.875,380.25,1,10,1,16,0.90722,0.851,0.72484,0.074124,0.18156,-1.7061,5.9408
01_trials_model.mod,1,3,35,2,2,1,2,1,0.875,319.71,1,11,1,17,0.91633,0.86455,0.74667,0.068174,0.16595,-1.796,5.7674
01_trials_model.mod,1,3,36,1,1,1,1,1,0.875,311.08,1,12,1,18,0.92254,0.87583,0.76354,0.064106,0.15328,-1.8755,5.7401
01_trials_model.mod,1,3,37,1,1,1,1,1,0.875,359.4,1,13,1,19,0.92682,0.88538,0.77678,0.061334,0.14282,-1.9462,5.8844
01_trials_model.mod,1,3,38,2,2,1,2,1,0.875,325.87,1,14,1,20,0.92982,0.89357,0.78737,0.059425,0.13405,-2.0096,5.7865
01_trials_model.mod,1,3,39,1,1,1,1,1,0.875,374.35,1,15,1,21,0.932,0.90067,0.79604,0.058083,0.12658,-2.0669,5.9252
01_trials_model.mod,1,3,40,1,1,1,1,1,0.875,445.48,1,16,1,22,0.93362,0.90687,0.80329,0.057113,0.12013,-2.1192,6.0992
01_trials_model.mod,1,3,41,2,2,1,2,1,0.875,454.1,1,17,1,23,0.93488,0.91235,0.80946,0.056388,0.1145,-2.1672,6.1183
01_trials_model.mod,1,3,42,2,2,0,1,1,0.875,445.25,1,18,1,24,0.68762,0.86167,0.12289,0.055828,0.74869,-0.28943,6.0986
01_trials_model.mod,1,3,43,2,1,1,2,1,0.875,336.8,1,19,1,25,0.77726,0.86895,0.58006,0.16623,0.21323,-1.5454,5.8195
01_trials_model.mod,1,3,44,1,2,1,1,1,0.875,483.06,1,20,1,26,0.83835,0.8755,0.65452,0.1262,0.1852,-1.6863,6.1801
01_trials_model.mod,1,3,45,1,1,0,2,1,0.875,379.29,1,21,1,27,0.57402,0.83381,0.13331,0.098927,0.69161,-0.36873,5.9383
01_trials_model.mod,1,3,46,1,1,1,1,1,0.875,373.47,1,22,1,28,0.68706,0.84136,0.4763,0.21695,0.26546,-1.3263,5.9228
01_trials_model.mod,1,3,47,2,2,1,2,1,0.875,452.25,1,23,1,29,0.77266,0.84826,0.56582,0.16648,0.23091,-1.4657,6.1142
01_trials_model.mod,1,3,48,2,2,0,1,1,0.875,539.49,1,24,1,30,0.52027,0.81292,0.13909,0.12826,0.6628,-0.41128,6.2906
01_trials_model.mod,1,3,49,2,1,1,2,1,0.875,397.55,1,25,1,31,0.63821,0.8204,0.42505,0.24095,0.29552,-1.219,5.9853
01_trials_model.mod,1,3,50,1,2,1,1,1,0.875,544.86,1,26,1,32,0.73257,0.82731,0.51576,0.18829,0.26023,-1.3462,6.3005
01_trials_model.mod,1,3,51,1,2,1,1,1,0.875,477.06,1,27,1,33,0.80146,0.8337,0.59,0.14616,0.23255,-1.4586,6.1676
01_trials_model.mod,1,3,52,2,1,1,2,1,0.875,419.4,1,28,1,34,0.84841,0.83964,0.64585,0.1154,0.21184,-1.5519,6.0388
01_trials_model.mod,1,3,53,1,2,1,1,1,0.875,352.02,1,29,1,35,0.87893,0.84517,0.68554,0.094435,0.19662,-1.6265,5.8637
01_trials_model.mod,1,3,54,2,2,1,2,1,0.875,310.01,1,30,1,36,0.89819,0.85033,0.7129,0.080809,0.18533,-1.6856,5.7366
01_trials_model.mod,1,3,55,2,1,1,2,1,0.875,364.06,1,31,1,37,0.91017,0.85516,0.73166,0.072209,0.17674,-1.7331,5.8973
01_trials_model.mod,1,3,56,2,2,1,2,1,0.875,358.25,1,32,1,38,0.91762,0.85969,0.74474,0.066857,0.16994,-1.7723,5.8812
01_trials_model.mod,1,3,57,1,1,1,1,1,0.875,308.67,1,33,1,39,0.9223,0.86394,0.75416,0.063531,0.16434,-1.8058,5.7323
01_trials_model.mod,1,3,58,2,1,1,2,1,0.875,336.37,1,34,1,40,0.92532,0.86794,0.76129,0.061441,0.15954,-1.8355,5.8182
01_trials_model.mod,1,3,59,1,1,1,1,1,0.875,320.53,1,35,1,41,0.92734,0.87171,0.76694,0.060094,0.1553,-1.8624,5.77
01_trials_model.mod,1,3,60,2,2,1,2,1,0.875,329.21,1,36,1,42,0.92876,0.87528,0.77166,0.059193,0.15146,-1.8874,5.7967
01_trials_model.mod,1,3,61,1,1,1,1,1,0.875,297.32,1,37,1,43,0.92981,0.87865,0.77574,0.05856,0.14793,-1.911,5.6948
01_trials_model.mod,1,3,62,1,1,1,1,1,0.875,298.57,1,38,1,44,0.93064,0.88184,0.77939,0.05809,0.14464,-1.9335,5.699
01_trials_model.mod,1,3,63,2,1,1,2,1,0.875,283.36,1,39,1,45,0.93132,0.88487,0.78272,0.05772,0.14156,-1.955,5.6467
01_trials_model.mod,1,3,64,1,1,1,1,1,0.875,300.35,1,40,1,46,0.93191,0.88775,0.78581,0.057415,0.13865,-1.9758,5.7049
01_trials_model.mod,1,3,65,1,2,1,1,1,0.875,285.69,1,41,1,47,0.93243,0.89049,0.7887,0.057152,0.1359,-1.9959,5.6549
01_trials_model.mod,1,3,66,1,2,1,1,1,0.875,315,1,42,1,48,0.93291,0.8931,0.79143,0.056918,0.13328,-2.0153,5.7526
01_trials_model.mod,1,3,67,2,2,1,2,1,0.875,270.82,1,43,1,49,0.93334,0.89558,0.79401,0.056707,0.13079,-2.0342,5.6015
01_trials_model.mod,1,3,68,1,2,1,1,1,0.875,332.02,1,44,1,50,0.93375,0.89795,0.79646,0.056512,0.12841,-2.0525,5.8052
01_trials_model.mod,1,3,69,1,1,1,1,1,0.875,411.1,1,45,1,51,0.93413,0.90022,0.7988,0.056332,0.12614,-2.0703,6.0188
01_trials_model.mod,1,3,70,2,1,1,2,1,0.875,320.02,1,46,1,52,0.93448,0.90239,0.80103,0.056163,0.12397,-2.0877,5.7684
01_trials_model.mod,1,3,71,1,2,1,1,1,0.875,301.07,1,47,1,53,0.93482,0.90447,0.80316,0.056004,0.1219,-2.1046,5.7073
01_trials_model.mod,1,3,72,1,2,1,1,1,0.875,314.02,1,48,1,54,0.93513,0.90646,0.8052,0.055855,0.11991,-2.121,5.7495
01_trials_model.mod,1,3,73,2,2,1,2,1,0.875,322.22,1,49,1,55,0.93543,0.90837,0.80715,0.055713,0.118,-2.1371,5.7752
01_trials_model.mod,1,3,74,2,1,0,1,1,0.875,457.77,1,50,1,56,0.63715,0.8902,0.097595,0.055579,0.74862,-0.28953,6.1264
01_trials_model.mod,1,3,75,1,1,1,1,1,0.875,357.05,1,51,1,57,0.74637,0.89235,0.55547,0.18876,0.20716,-1.5743,5.8779
01_trials_model.mod,1,3,76,2,1,0,1,1,0.875,444.05,1,52,1,1,0.39094,0.87519,0.089862,0.14,0.64668,-0.43591,6.0959
01_trials_model.mod,1,3,77,2,1,1,2,1,0.875,376.28,1,53,1,2,0,0.51,NA,NA,0.39141,-0.93801,5.9303
01_trials_model.mod,1,3,78,1,2,1,1,1,0.875,346.8,1,54,1,3,0,0.51,NA,NA,0.39141,-0.93801,5.8487
01_trials_model.mod,1,3,79,2,1,1,2,1,0.875,365.42,1,55,1,4,0,0.51,NA,NA,0.39141,-0.93801,5.901
01_trials_model.mod,1,3,80,2,1,1,2,1,0.875,327.86,1,56,1,5,0,0.51,NA,NA,0.39141,-0.93801,5.7926
01_trials_model.mod,1,4,1,1,1,1,1,2,0.87778,295.89,1,57,1,6,0,0.51,NA,NA,0.39141,-0.93801,5.69
01_trials_model.mod,1,4,2,1,2,1,1,2,0.87778,509.07,1,1,1,7,0.7,0.51,NA,NA,0.39141,-0.93801,6.2326
01_trials_model.mod,1,4,3,2,1,1,2,2,0.87778,364.83,1,2,1,1,0.7588,0.255,0.50556,0.1607,0.31409,-1.1581,5.8994
01_trials_model.mod,1,4,4,1,1,1,1,2,0.87778,353.83,1,3,1,2,0,0.51,NA,NA,0.39141,-0.93801,5.8688
01_trials_model.mod,1,4,5,2,2,0,1,2,0.87778,461.71,1,4,1,3,0,0.51,NA,NA,0.39141,-0.93801,6.1349
01_trials_model.mod,1,4,6,1,1,1,1,2,0.87778,304.22,1,5,1,4,0,0.51,NA,NA,0.39141,-0.93801,5.7178
01_trials_model.mod,1,4,7,1,2,1,1,2,0.87778,358.98,1,6,1,5,0,0.51,NA,NA,0.39141,-0.93801,5.8833
01_trials_model.mod,1,4,8,2,1,0,1,2,0.87778,294.09,1,7,1,6,0,0.51,NA,NA,0.39141,-0.93801,5.6839
01_trials_model.mod,1,4,9,1,1,1,1,2,0.87778,309.53,1,1,1,7,0.7,0.51,NA,NA,0.39141,-0.93801,5.7351
01_trials_model.mod,1,4,10,1,1,1,1,2,0.87778,313.57,1,2,1,8,0.76123,0.755,0.51234,0.1607,0.30589,-1.1845,5.748
01_trials_model.mod,1,4,11,2,1,1,2,2,0.87778,376.06,1,3,1,1,0.73197,0.50333,0.3642,0.13336,0.50244,-0.68828,5.9297
01_trials_model.mod,1,4,12,1,2,1,1,2,0.87778,403.48,1,4,1,2,0,0.51,NA,NA,0.39141,-0.93801,6.0001
01_trials_model.mod,1,4,13,2,2,1,2,2,0.87778,376.47,1,5,1,3,0,0.51,NA,NA,0.39141,-0.93801,5.9308
01_trials_model.mod,1,4,14,2,1,1,2,2,0.87778,369.04,1,6,1,4,0,0.51,NA,NA,0.39141,-0.93801,5.9109
01_trials_model.mod,1,4,15,2,1,1,2,2,0.87778,478.06,1,7,1,5,0,0.51,NA,NA,0.39141,-0.93801,6.1697
01_trials_model.mod,1,4,16,2,1,1,2,2,0.87778,325.54,1,8,1,6,0,0.51,NA,NA,0.39141,-0.93801,5.7855
01_trials_model.mod,1,4,17,2,1,0,1,2,0.87778,466.96,1,1,2,7,0.7,0.51,NA,NA,0.39141,-0.93801,6.1462
01_trials_model.mod,1,4,18,2,2,1,2,2,0.87778,351.37,1,2,2,8,0.76123,0.755,0.51234,0.1607,0.30589,-1.1845,5.8618
01_trials_model.mod,1,4,19,2,1,1,2,2,0.87778,409.92,1,3,2,9,0.82144,0.83667,0.61351,0.13336,0.22345,-1.4986,6.016
01_trials_model.mod,1,4,20,2,2,0,1,2,0.87778,394.91,1,4,2,10,0.73358,0.6275,0.29318,0.10648,0.59353,-0.52167,5.9787
01_trials_model.mod,1,4,21,1,2,1,1,2,0.87778,374.89,1,5,2,11,0.77344,0.702,0.49743,0.14571,0.34376,-1.0678,5.9266
01_trials_model.mod,1,4,22,2,2,0,1,2,0.87778,394.6,1,6,2,12,0.70713,0.585,0.30884,0.12791,0.56011,-0.57963,5.9779
01_trials_model.mod,1,4,23,2,1,1,2,2,0.87778,451.37,1,7,2,13,0.73696,0.64429,0.44132,0.15751,0.39367,-0.93225,6.1123
01_trials_model.mod,1,4,24,1,1,1,1,2,0.87778,412.01,1,8,2,14,0.77268,0.68875,0.49012,0.1442,0.35416,-1.038,6.021
01_trials_model.mod,1,4,25,2,2,0,1,2,0.87778,358.25,1,9,2,15,0.69212,0.61222,0.28831,0.12825,0.57767,-0.54875,5.8812
01_trials_model.mod,1,4,26,1,1,1,1,2,0.87778,438.97,1,10,2,16,0.72695,0.651,0.43719,0.16422,0.39023,-0.94102,6.0844
01_trials_model.mod,1,4,27,2,1,1,2,2,0.87778,341.98,1,11,2,17,0.76342,0.68273,0.47973,0.14867,0.3605,-1.0203,5.8348
01_trials_model.mod,1,4,28,2,2,1,2,2,0.87778,367.1,1,12,2,18,0.79751,0.70917,0.5214,0.13238,0.33319,-1.0991,5.9056
01_trials_model.mod,1,4,29,2,2,1,2,2,0.87778,303.71,1,13,2,19,0.82701,0.73154,0.56012,0.11716,0.30851,-1.176,5.7161
01_trials_model.mod,1,4,30,2,1,1,2,2,0.87778,320.22,1,14,2,20,0.85114,0.75071,0.59458,0.10399,0.28661,-1.2496,5.769
01_trials_model.mod,1,4,31,2,1,1,2,2,0.87778,314.74,1,15,2,21,0.87008,0.76733,0.62428,0.093215,0.2674,-1.319,5.7517
01_trials_model.mod,1,4,32,1,1,1,1,2,0.87778,442.92,1,16,2,22,0.88454,0.78188,0.64933,0.084758,0.25067,-1.3836,6.0934
01_trials_model.mod,1,4,33,2,2,1,2,2,0.87778,334.95,1,17,2,23,0.8954,0.79471,0.67025,0.078302,0.23612,-1.4434,5.814
01_trials_model.mod,1,4,34,1,2,1,1,2,0.87778,363.82,1,18,2,24,0.90349,0.80611,0.68768,0.073456,0.22343,-1.4987,5.8967
01_trials_model.mod,1,4,35,2,1,1,2,2,0.87778,335.96,1,19,2,25,0.90955,0.81632,0.70229,0.06984,0.2123,-1.5498,5.817
01_trials_model.mod,1,4,36,2,2,1,2,2,0.87778,396.6,1,20,2,26,0.91413,0.8255,0.71466,0.067136,0.20245,-1.5973,5.9829
01_trials_model.mod,1,4,37,2,2,1,2,2,0.87778,336.62,1,21,2,27,0.91764,0.83381,0.72526,0.065093,0.19368,-1.6415,5.819
01_trials_model.mod,1,4,38,1,1,1,1,2,0.87778,378.06,1,22,2,28,0.9204,0.84136,0.73447,0.063523,0.18581,-1.683,5.9351
01_trials_model.mod,1,4,39,2,2,1,2,2,0.87778,410.76,1,23,2,29,0.92261,0.84826,0.74258,0.062293,0.17869,-1.7221,6.018
01_trials_model.mod,1,4,40,1,1,1,1,2,0.87778,299.45,1,24,2,30,0.92442,0.85458,0.7498,0.061306,0.17222,-1.759,5.7019
01_trials_model.mod,1,4,41,2,2,1,2,2,0.87778,368,1,25,2,31,0.92593,0.8604,0.7563,0.060498,0.16629,-1.794,5.9081
01_trials_model.mod,1,4,42,1,2,1,1,2,0.87778,321,1,26,2,32,0.92723,0.86577,0.76219,0.059821,0.16085,-1.8273,5.7714
01_trials_model.mod,1,4,43,2,1,0,1,2,0.87778,498.23,1,27,2,33,0.71218,0.8337,0.14659,0.059243,0.73766,-0.30428,6.2111
01_trials_model.mod,1,4,44,2,1,1,2,2,0.87778,431.62,1,28,2,34,0.78852,0.83964,0.57892,0.15526,0.23218,-1.4602,6.0675
01_trials_model.mod,1,4,45,2,2,1,2,2,0.87778,NA,3,29,2,35,0.84088,0.84517,0.64035,0.12117,0.20975,-1.5618,NA
01_trials_model.mod,1,4,46,1,2,1,1,2,0.87778,339.73,1,30,2,36,0.87491,0.85033,0.68401,0.097797,0.19349,-1.6425,5.8282
01_trials_model.mod,1,4,47,1,2,1,1,2,0.87778,300.9,1,31,2,37,0.89629,0.85516,0.71388,0.082603,0.18167,-1.7056,5.7068
01_trials_model.mod,1,4,48,2,2,1,2,2,0.87778,328.41,1,32,2,38,0.90949,0.85969,0.73408,0.073056,0.17287,-1.7552,5.7943
01_trials_model.mod,1,4,49,2,2,1,2,2,0.87778,311.36,1,33,2,39,0.9176,0.86394,0.74789,0.067164,0.16605,-1.7955,5.7409
01_trials_model.mod,1,4,50,2,2,1,2,2,0.87778,334.05,1,34,2,40,0.92262,0.86794,0.75764,0.063543,0.16053,-1.8293,5.8113
01_trials_model.mod,1,4,51,2,1,1,2,2,0.87778,323.94,1,35,2,41,0.9258,0.87171,0.76484,0.0613,0.15587,-1.8588,5.7806
01_trials_model.mod,1,4,52,1,1,1,1,2,0.87778,389.51,1,36,2,42,0.92788,0.87528,0.77045,0.05988,0.15179,-1.8853,5.9649
01_trials_model.mod,1,4,53,2,1,1,2,2,0.87778,368.95,1,37,2,43,0.92932,0.87865,0.77506,0.058949,0.14812,-1.9098,5.9107
01_trials_model.mod,1,4,54,1,2,1,1,2,0.87778,439.02,1,38,2,44,0.93036,0.88184,0.779,0.058309,0.14475,-1.9328,6.0845
01_trials_model.mod,1,4,55,2,2,1,2,2,0.87778,NA,3,39,2,45,0.93117,0.88487,0.7825,0.057843,0.14162,-1.9546,NA
01_trials_model.mod,1,4,56,2,1,1,2,2,0.87778,NA,3,40,2,46,0.93182,0.88775,0.78569,0.057483,0.13868,-1.9756,NA
01_trials_model.mod,1,4,57,1,2,1,1,2,0.87778,NA,3,41,2,47,0.93239,0.89049,0.78863,0.05719,0.13591,-1.9957,NA
01_trials_model.mod,1,4,58,2,1,1,2,2,0.87778,NA,3,42,2,48,0.93288,0.8931,0.79139,0.05694,0.13329,-2.0152,NA
01_trials_model.mod,1,4,59,1,2,0,2,2,0.87778,NA,3,43,2,49,0.66618,0.87233,0.11319,0.056719,0.74804,-0.2903,NA
01_trials_model.mod,1,4,60,2,1,1,2,2,0.87778,NA,3,44,2,50,0.76349,0.87523,0.5675,0.1758,0.21352,-1.544,NA
01_trials_model.mod,1,4,61,1,2,1,1,2,0.87778,NA,3,45,2,51,0.82987,0.878,0.64559,0.13235,0.18631,-1.6803,NA
01_trials_model.mod,1,4,62,1,2,1,1,2,0.87778,NA,3,46,2,52,0.872,0.88065,0.69974,0.10271,0.16807,-1.7834,NA
01_trials_model.mod,1,4,63,1,2,1,1,2,0.87778,NA,3,47,2,53,0.89754,0.88319,0.73499,0.083901,0.15607,-1.8575,NA
01_trials_model.mod,1,4,64,1,1,1,1,2,0.87778,NA,3,48,2,54,0.91262,0.88562,0.75722,0.072497,0.14807,-1.9101,NA
01_trials_model.mod,1,4,65,2,1,1,2,2,0.87778,NA,3,49,2,55,0.92142,0.88796,0.77117,0.065763,0.14253,-1.9482,NA
01_trials_model.mod,1,4,66,1,2,1,1,2,0.87778,NA,3,50,2,56,0.92656,0.8902,0.78011,0.061834,0.13846,-1.9772,NA
01_trials_model.mod,1,4,67,1,1,1,1,2,0.87778,NA,3,51,2,57,0.92959,0.89235,0.78609,0.059541,0.13527,-2.0005,NA
01_trials_model.mod,1,4,68,1,1,1,1,2,0.87778,NA,3,52,2,58,0.93142,0.89442,0.79033,0.058188,0.13262,-2.0202,NA
01_trials_model.mod,1,4,69,1,1,1,1,2,0.87778,NA,3,53,2,59,0.93258,0.89642,0.79356,0.057369,0.13031,-2.0378,NA
01_trials_model.mod,1,4,70,1,2,1,1,2,0.87778,NA,3,54,2,60,0.93335,0.89833,0.79619,0.056852,0.12821,-2.0541,NA
01_trials_model.mod,1,4,71,2,1,1,2,2,0.87778,NA,3,55,2,61,0.93391,0.90018,0.79845,0.056507,0.12627,-2.0694,NA
01_trials_model.mod,1,4,72,2,2,1,2,2,0.87778,NA,3,56,2,62,0.93433,0.90196,0.80047,0.056261,0.12443,-2.084,NA
01_trials_model.mod,1,4,73,1,1,1,1,2,0.87778,NA,3,57,2,63,0.93468,0.90368,0.80234,0.056071,0.12268,-2.0981,NA
01_trials_model.mod,1,4,74,1,1,1,1,2,0.87778,NA,3,58,2,64,0.93498,0.90534,0.8041,0.055915,0.12101,-2.1119,NA
01_trials_model.mod,1,4,75,1,2,1,1,2,0.87778,NA,3,59,2,65,0.93526,0.90695,0.80577,0.055779,0.1194,-2.1253,NA
01_trials_model.mod,1,4,76,1,2,0,2,2,0.87778,NA,3,60,2,66,0.63331,0.89183,0.096126,0.055657,0.74815,-0.29015,NA
01_trials_model.mod,1,4,77,1,1,1,1,2,0.87778,NA,3,61,2,67,0.74387,0.89361,0.55318,0.19048,0.20721,-1.574,NA
01_trials_model.mod,1,4,78,2,1,1,2,2,0.87778,NA,3,62,2,68,0.81995,0.89532,0.64264,0.14111,0.17585,-1.7381,NA
01_trials_model.mod,1,4,79,1,1,1,1,2,0.87778,NA,3,63,2,69,0.86804,0.89698,0.70478,0.10714,0.1554,-1.8617,NA
01_trials_model.mod,1,4,80,1,2,1,1,2,0.87778,NA,3,64,2,70,0.89682,0.89859,0.74463,0.08567,0.14253,-1.9482,NA
01_trials_model.mod,1,4,81,2,1,1,2,2,0.87778,NA,3,65,2,71,0.9135,0.90015,0.76906,0.07282,0.13446,-2.0065,NA
01_trials_model.mod,1,4,82,2,2,1,2,2,0.87778,NA,3,66,2,72,0.92302,0.90167,0.78378,0.065371,0.12925,-2.046,NA
01_trials_model.mod,1,4,83,1,1,1,1,2,0.87778,NA,3,67,2,73,0.92842,0.90313,0.79273,0.061123,0.12572,-2.0737,NA
01_trials_model.mod,1,4,84,2,2,1,2,2,0.87778,NA,3,68,2,74,0.9315,0.90456,0.79834,0.058712,0.12316,-2.0943,NA
01_trials_model.mod,1,4,85,1,1,1,1,2,0.87778,NA,3,69,2,75,0.93328,0.90594,0.80205,0.057337,0.12114,-2.1108,NA
01_trials_model.mod,1,4,86,1,1,1,1,2,0.87778,NA,3,70,2,76,0.93435,0.90729,0.80469,0.056539,0.11945,-2.1248,NA
01_trials_model.mod,1,4,87,2,1,0,1,2,0.87778,NA,3,71,2,77,0.62557,0.89451,0.093665,0.056062,0.74679,-0.29197,NA
01_trials_model.mod,1,4,88,2,2,1,2,2,0.87778,NA,3,72,2,78,0.73877,0.89597,0.54846,0.19393,0.20747,-1.5728,NA
01_trials_model.mod,1,4,89,2,2,1,2,2,0.87778,NA,3,73,2,79,0.81697,0.8974,0.64004,0.14339,0.17534,-1.741,NA
01_trials_model.mod,1,4,90,1,2,0,2,2,0.87778,NA,3,74,2,1,0.45303,0.88527,0.08984,0.10847,0.67454,-0.39373,NA
01_trials_model.mod,1,5,1,1,1,1,1,1,0.72165,NA,3,75,2,2,0,0.51,NA,NA,0.39141,-0.93801,NA
01_trials_model.mod,1,5,2,2,2,1,2,1,0.72165,NA,3,76,2,3,0,0.51,NA,NA,0.39141,-0.93801,NA
01_trials_model.mod,1,5,3,1,1,1,1,1,0.72165,NA,3,77,2,4,0,0.51,NA,NA,0.39141,-0.93801,NA
01_trials_model.mod,1,5,4,2,2,0,1,1,0.72165,NA,3,78,2,5,0,0.51,NA,NA,0.39141,-0.93801,NA
01_trials_model.mod,1,5,5,2,1,1,2,1,0.72165,374.08,1,79,2,6,0,0.51,NA,NA,0.39141,-0.93801,5.9245
01_trials_model.mod,1,5,6,2,2,1,2,1,0.72165,338.95,1,1,1,7,0.7,0.51,NA,NA,0.39141,-0.93801,5.8259
01_trials_model.mod,1,5,7,1,1,1,1,1,0.72165,313.99,1,2,1,8,0.76123,0.755,0.51234,0.1607,0.30589,-1.1845,5.7494
01_trials_model.mod,1,5,8,1,1,0,2,1,0.72165,449.25,1,3,1,1,0.73197,0.50333,0.3642,0.13336,0.50244,-0.68828,6.1076
01_trials_model.mod,1,5,9,2,1,1,2,1,0.72165,325.99,1,4,1,2,0,0.51,NA,NA,0.39141,-0.93801,5.7869
01_trials_model.mod,1,5,10,2,1,1,2,1,0.72165,435.16,1,5,1,3,0,0.51,NA,NA,0.39141,-0.93801,6.0757
01_trials_model.mod,1,5,11,1,1,1,1,1,0.72165,360.21,1,6,1,4,0,0.51,NA,NA,0.39141,-0.93801,5.8867
01_trials_model.mod,1,5,12,1,2,1,1,1,0.72165,333.52,1,7,1,5,0,0.51,NA,NA,0.39141,-0.93801,5.8097
01_trials_model.mod,1,5,13,2,1,1,2,1,0.72165,358.29,1,8,1,6,0,0.51,NA,NA,0.39141,-0.93801,5.8813
01_trials_model.mod,1,5,14,2,1,0,1,1,0.72165,376.92,1,1,1,7,0.7,0.51,NA,NA,0.39141,-0.93801,5.932
01_trials_model.mod,1,5,15,1,2,0,2,1,0.72165,373.5,1,2,1,1,0.7588,0.255,0.50556,0.1607,0.31409,-1.1581,5.9229
01_trials_model.mod,1,5,16,2,1,0,1,1,0.72165,338.89,1,3,1,2,0,0.51,NA,NA,0.39141,-0.93801,5.8257
01_trials_model.mod,1,5,17,2,1,1,2,1,0.72165,255.88,1,4,1,3,0,0.51,NA,NA,0.39141,-0.93801,5.5447
01_trials_model.mod,1,5,18,2,1,1,2,1,0.72165,304.01,1,5,1,4,0,0.51,NA,NA,0.39141,-0.93801,5.7171
01_trials_model.mod,1,5,19,1,1,0,2,1,0.72165,360.7,1,6,1,5,0,0.51,NA,NA,0.39141,-0.93801,5.888
01_trials_model.mod,1,5,20,1,2,1,1,1,0.72165,309.35,1,7,1,6,0,0.51,NA,NA,0.39141,-0.93801,5.7345
01_trials_model.mod,1,5,21,1,1,0,2,1,0.72165,411.61,1,1,1,7,0.7,0.51,NA,NA,0.39141,-0.93801,6.0201
01_trials_model.mod,1,5,22,2,2,0,1,1,0.72165,366.74,1,2,1,1,0.7588,0.255,0.50556,0.1607,0.31409,-1.1581,5.9047
01_trials_model.mod,1,5,23,1,2,1,1,1,0.72165,339.75,1,3,1,2,0,0.51,NA,NA,0.39141,-0.93801,5.8282
01_trials_model.mod,1,5,24,2,1,0,1,1,0.72165,300.64,1,4,1,3,0,0.51,NA,NA,0.39141,-0.93801,5.7059
01_trials_model.mod,1,5,25,1,1,1,1,1,0.72165,356.8,1,5,1,4,0,0.51,NA,NA,0.39141,-0.93801,5.8772
01_trials_model.mod,1,5,26,1,2,1,1,1,0.72165,389.32,1,6,1,5,0,0.51,NA,NA,0.39141,-0.93801,5.9644
01_trials_model.mod,1,5,27,2,1,1,2,1,0.72165,338.63,1,7,1,6,0,0.51,NA,NA,0.39141,-0.93801,5.8249
01_trials_model.mod,1,5,28,2,1,1,2,1,0.72165,659.18,1,1,1,7,0.7,0.51,NA,NA,0.39141,-0.93801,6.491
01_trials_model.mod,1,5,29,2,1,0,1,1,0.72165,NA,2,2,1,1,0.7588,0.255,0.50556,0.1607,0.31409,-1.1581,NA
01_trials_model.mod,1,5,30,1,2,1,1,1,0.72165,332.89,1,3,1,2,0,0.51,NA,NA,0.39141,-0.93801,5.8078
01_trials_model.mod,1,5,31,1,2,0,2,1,0.72165,537.85,1,4,1,3,0,0.51,NA,NA,0.39141,-0.93801,6.2876
01_trials_model.mod,1,5,32,1,1,1,1,1,0.72165,346,1,5,1,4,0,0.51,NA,NA,0.39141,-0.93801,5.8464
01_trials_model.mod,1,5,33,2,2,1,2,1,0.72165,358.39,1,6,1,5,0,0.51,NA,NA,0.39141,-0.93801,5.8816
01_trials_model.mod,1,5,34,2,1,0,1,1,0.72165,363.29,1,7,1,6,0,0.51,NA,NA,0.39141,-0.93801,5.8952
01_trials_model.mod,1,5,35,2,1,1,2,1,0.72165,328.48,1,1,2,7,0.7,0.51,NA,NA,0.39141,-0.93801,5.7945
01_trials_model.mod,1,5,36,2,2,1,2,1,0.72165,276.96,1,2,2,8,0.76123,0.755,0.51234,0.1607,0.30589,-1.1845,5.6239
01_trials_model.mod,1,5,37,2,1,1,2,1,0.72165,309.31,1,3,2,1,0.73197,0.50333,0.3642,0.13336,0.50244,-0.68828,5.7343
01_trials_model.mod,1,5,38,2,1,0,1,1,0.72165,422.37,1,4,2,2,0,0.51,NA,NA,0.39141,-0.93801,6.0459
01_trials_model.mod,1,5,39,1,1,0,2,1,0.72165,395.67,1,5,2,3,0,0.51,NA,NA,0.39141,-0.93801,5.9806
01_trials_model.mod,1,5,40,1,2,1,1,1,0.72165,331.45,1,6,2,4,0,0.51,NA,NA,0.39141,-0.93801,5.8035
01_trials_model.mod,1,5,41,2,1,1,2,1,0.72165,936.45,1,7,2,5,0,0.51,NA,NA,0.39141,-0.93801,6.8421
01_trials_model.mod,1,5,42,2,2,1,2,1,0.72165,356.85,1,8,2,6,0,0.51,NA,NA,0.39141,-0.93801,5.8773
01_trials_model.mod,1,5,43,1,1,1,1,1,0.72165,361.84,1,1,1,7,0.7,0.51,NA,NA,0.39141,-0.93801,5.8912
01_trials_model.mod,1,5,44,1,1,1,1,1,0.72165,301.86,1,2,1,8,0.76123,0.755,0.51234,0.1607,0.30589,-1.1845,5.71
01_trials_model.mod,1,5,45,1,2,1,1,1,0.72165,336.74,1,3,1,9,0.82144,0.83667,0.61351,0.13336,0.22345,-1.4986,5.8193
01_trials_model.mod,1,5,46,1,1,0,2,1,0.72165,413.14,1,4,1,10,0.73358,0.6275,0.29318,0.10648,0.59353,-0.52167,6.0238
01_trials_model.mod,1,5,47,1,2,1,1,1,0.72165,373.64,1,5,1,11,0.77344,0.702,0.49743,0.14571,0.34376,-1.0678,5.9233
01_trials_model.mod,1,5,48,2,2,1,2,1,0.72165,419.36,1,6,1,12,0.81389,0.75167,0.55938,0.12791,0.29517,-1.2202,6.0387
01_trials_model.mod,1,5,49,1,2,1,1,1,0.72165,379.41,1,7,1,13,0.84829,0.78714,0.61421,0.10985,0.25642,-1.3609,5.9386
01_trials_model.mod,1,5,50,1,2,1,1,1,0.72165,328.55,1,8,1,14,0.87476,0.81375,0.65997,0.094487,0.22554,-1.4892,5.7947
01_trials_model.mod,1,5,51,2,1,1,2,1,0.72165,329.03,1,9,1,15,0.8939,0.83444,0.69648,0.082669,0.20104,-1.6042,5.7961
01_trials_model.mod,1,5,52,1,1,1,1,1,0.72165,385.73,1,10,1,16,0.90722,0.851,0.72484,0.074124,0.18156,-1.7061,5.9551
01_trials_model.mod,1,5,53,1,1,1,1,1,0.72165,541.3,1,11,1,17,0.91633,0.86455,0.74667,0.068174,0.16595,-1.796,6.294
01_trials_model.mod,1,5,54,1,2,1,1,1,0.72165,366.96,1,12,1,18,0.92254,0.87583,0.76354,0.064106,0.15328,-1.8755,5.9053
01_trials_model.mod,1,5,55,1,1,1,1,1,0.72165,271.1,1,13,1,19,0.92682,0.88538,0.77678,0.061334,0.14282,-1.9462,5.6025
01_trials_model.mod,1,5,56,1,2,1,1,1,0.72165,325.71,1,14,1,20,0.92982,0.89357,0.78737,0.059425,0.13405,-2.0096,5.786
01_trials_model.mod,1,5,57,2,1,1,2,1,0.72165,298.17,1,15,1,21,0.932,0.90067,0.79604,0.058083,0.12658,-2.0669,5.6977
01_trials_model.mod,1,5,58,1,1,1,1,1,0.72165,371.05,1,16,1,22,0.93362,0.90687,0.80329,0.057113,0.12013,-2.1192,5.9163
01_trials_model.mod,1,5,59,2,2,1,2,1,0.72165,317.6,1,17,1,23,0.93488,0.91235,0.80946,0.056388,0.1145,-2.1672,5.7608
01_trials_model.mod,1,5,60,2,2,0,1,1,0.72165,474.85,1,18,1,24,0.68762,0.86167,0.12289,0.055828,0.74869,-0.28943,6.163
01_trials_model.mod,1,5,61,2,2,1,2,1,0.72165,311.23,1,19,1,25,0.77726,0.86895,0.58006,0.16623,0.21323,-1.5454,5.7405
01_trials_model.mod,1,5,62,2,1,1,2,1,0.72165,344.87,1,20,1,26,0.83835,0.8755,0.65452,0.1262,0.1852,-1.6863,5.8432
01_trials_model.mod,1,5,63,2,1,1,2,1,0.72165,332.52,1,21,1,27,0.87726,0.88143,0.70703,0.098927,0.16539,-1.7995,5.8067
01_trials_model.mod,1,5,64,2,1,1,2,1,0.72165,321.53,1,22,1,28,0.90099,0.88682,0.74217,0.081555,0.15148,-1.8873,5.7731
01_trials_model.mod,1,5,65,1,2,1,1,1,0.72165,321.8,1,23,1,29,0.91514,0.89174,0.76519,0.070957,0.1415,-1.9554,5.7739
01_trials_model.mod,1,5,66,2,2,1,2,1,0.72165,368.8,1,24,1,30,0.9235,0.89625,0.78038,0.06464,0.13406,-2.0095,5.9103
01_trials_model.mod,1,5,67,1,2,1,1,1,0.72165,369.39,1,25,1,31,0.92848,0.9004,0.79072,0.060905,0.12823,-2.0539,5.9119
01_trials_model.mod,1,5,68,1,2,1,1,1,0.72165,459.95,1,26,1,32,0.93151,0.90423,0.79811,0.058682,0.12346,-2.0919,6.1311
01_trials_model.mod,1,5,69,1,2,1,1,1,0.72165,336.48,1,27,1,33,0.93342,0.90778,0.80369,0.05733,0.11937,-2.1255,5.8185
01_trials_model.mod,1,5,70,1,1,0,2,1,0.72165,613.94,1,28,1,34,0.66189,0.87536,0.11056,0.05648,0.74844,-0.28976,6.4199
01_trials_model.mod,1,5,71,1,2,0,2,1,0.72165,387.06,1,29,1,1,0.35961,0.84517,0.099796,0.17772,0.62413,-0.4714,5.9586
01_trials_model.mod,1,5,72,2,2,1,2,1,0.72165,385.35,1,30,1,2,0,0.51,NA,NA,0.39141,-0.93801,5.9542
01_trials_model.mod,1,5,73,1,2,1,1,1,0.72165,360.6,1,31,1,3,0,0.51,NA,NA,0.39141,-0.93801,5.8878
01_trials_model.mod,1,5,74,2,2,1,2,1,0.72165,378.49,1,32,1,4,0,0.51,NA,NA,0.39141,-0.93801,5.9362
01_trials_model.mod,1,5,75,2,1,0,1,1,0.72165,341.34,1,33,1,5,0,0.51,NA,NA,0.39141,-0.93801,5.8329
01_trials_model.mod,1,5,76,2,2,0,1,1,0.72165,NA,2,34,1,6,0,0.51,NA,NA,0.39141,-0.93801,NA
01_trials_model.mod,1,5,77,1,1,0,2,1,0.72165,495.01,1,1,1,7,0.7,0.51,NA,NA,0.39141,-0.93801,6.2046
01_trials_model.mod,1,5,78,1,2,1,1,1,0.72165,278.86,1,2,1,8,0.76123,0.755,0.51234,0.1607,0.30589,-1.1845,5.6307
01_trials_model.mod,1,5,79,1,2,1,1,1,0.72165,325.3,1,3,1,9,0.82144,0.83667,0.61351,0.13336,0.22345,-1.4986,5.7847
01_trials_model.mod,1,5,80,2,1,1,2,1,0.72165,369.32,1,4,1,10,0.86642,0.8775,0.69064,0.10648,0.17293,-1.7549,5.9117
01_trials_model.mod,1,5,81,1,2,1,1,1,0.72165,421.39,1,5,1,11,0.89623,0.902,0.74615,0.086392,0.13971,-1.9682,6.0436
01_trials_model.mod,1,5,82,1,1,1,1,1,0.72165,414.71,1,6,1,12,0.91474,0.91833,0.78411,0.073082,0.11733,-2.1427,6.0276
01_trials_model.mod,1,5,83,1,2,1,1,1,0.72165,NA,3,7,1,13,0.92586,0.93,0.80944,0.064818,0.10188,-2.284,NA
01_trials_model.mod,1,5,84,2,2,0,1,1,0.72165,784.58,1,8,1,14,0.73257,0.81375,0.16395,0.059853,0.72984,-0.31493,6.6651
01_trials_model.mod,1,5,85,2,2,0,1,1,0.72165,428.43,1,9,1,15,0.57258,0.72333,0.19579,0.14616,0.62788,-0.46541,6.0601
01_trials_model.mod,1,5,86,2,1,1,2,1,0.72165,403.02,1,10,1,16,0.66094,0.751,0.42417,0.21759,0.3341,-1.0963,5.999
01_trials_model.mod,1,5,87,1,1,1,1,1,0.72165,333.89,1,11,1,17,0.73654,0.77364,0.49801,0.17814,0.29846,-1.2091,5.8108
01_trials_model.mod,1,5,88,2,2,0,1,1,0.72165,351.42,1,12,1,18,0.58892,0.70917,0.20685,0.14439,0.62318,-0.47292,5.862
01_trials_model.mod,1,5,89,1,2,1,1,1,0.72165,361.18,1,13,1,19,0.66838,0.73154,0.42386,0.2103,0.34524,-1.0635,5.8894
01_trials_model.mod,1,5,90,1,1,1,1,1,0.72165,349.64,1,14,1,20,0.73635,0.75071,0.48824,0.17482,0.31539,-1.154,5.8569
01_trials_model.mod,1,5,91,2,2,0,1,1,0.72165,NA,3,15,1,21,0.59568,0.70067,0.21284,0.14447,0.61953,-0.47879,NA
01_trials_model.mod,1,5,92,1,1,1,1,1,0.72165,391.08,1,16,1,22,0.67016,0.71937,0.42115,0.20728,0.35298,-1.0413,5.9689
01_trials_model.mod,1,5,93,2,2,1,2,1,0.72165,329.95,1,17,1,23,0.73382,0.73588,0.47976,0.17402,0.3269,-1.1181,5.7989
01_trials_model.mod,1,5,94,2,2,0,1,1,0.72165,408.58,1,18,1,24,0.59755,0.695,0.21619,0.1456,0.61652,-0.48366,6.0127
01_trials_model.mod,1,5,95,1,1,0,2,1,0.72165,377.34,1,19,1,1,0.49276,0.65842,0.20055,0.20644,0.57806,-0.54807,5.9331
01_trials_model.mod,1,5,96,1,1,1,1,1,0.72165,483.98,1,20,1,2,0,0.51,NA,NA,0.39141,-0.93801,6.182
01_trials_model.mod,1,5,97,1,2,1,1,1,0.72165,393.1,1,21,1,3,0,0.51,NA,NA,0.39141,-0.93801,5.9741
01_trials_model.mod,1,6,1,1,1,1,1,2,0.72093,773.58,1,22,1,4,0,0.51,NA,NA,0.39141,-0.93801,6.651
01_trials_model.mod,1,6,2,2,2,0,1,2,0.72093,348.04,1,23,1,5,0,0.51,NA,NA,0.39141,-0.93801,5.8523
01_trials_model.mod,1,6,3,1,2,1,1,2,0.72093,387.74,1,24,1,6,0,0.51,NA,NA,0.39141,-0.93801,5.9603
01_trials_model.mod,1,6,4,1,1,1,1,2,0.72093,332.47,1,1,1,7,0.7,0.51,NA,NA,0.39141,-0.93801,5.8065
01_trials_model.mod,1,6,5,2,1,1,2,2,0.72093,393.59,1,2,1,1,0.7588,0.255,0.50556,0.1607,0.31409,-1.1581,5.9753
01_trials_model.mod,1,6,6,2,2,1,2,2,0.72093,337.32,1,3,1,2,0,0.51,NA,NA,0.39141,-0.93801,5.821
01_trials_model.mod,1,6,7,1,2,1,1,2,0.72093,334.33,1,4,1,3,0,0.51,NA,NA,0.39141,-0.93801,5.8121
01_trials_model.mod,1,6,8,2,2,1,2,2,0.72093,342.96,1,5,1,4,0,0.51,NA,NA,0.39141,-0.93801,5.8376
01_trials_model.mod,1,6,9,2,1,1,2,2,0.72093,370.66,1,6,1,5,0,0.51,NA,NA,0.39141,-0.93801,5.9153
01_trials_model.mod,1,6,10,2,1,0,1,2,0.72093,543.74,1,7,1,6,0,0.51,NA,NA,0.39141,-0.93801,6.2985
01_trials_model.mod,1,6,11,2,2,1,2,2,0.72093,877.61,1,1,2,7,0.7,0.51,NA,NA,0.39141,-0.93801,6.7772
01_trials_model.mod,1,6,12,2,2,1,2,2,0.72093,345.36,1,2,2,8,0.76123,0.755,0.51234,0.1607,0.30589,-1.1845,5.8446
01_trials_model.mod,1,6,13,1,2,1,1,2,0.72093,461.95,1,3,2,9,0.82144,0.83667,0.61351,0.13336,0.22345,-1.4986,6.1355
01_trials_model.mod,1,6,14,2,1,1,2,2,0.72093,380.15,1,4,2,10,0.86642,0.8775,0.69064,0.10648,0.17293,-1.7549,5.9406
01_trials_model.mod,1,6,15,1,1,0,2,2,0.72093,427.03,1,5,2,11,0.74049,0.702,0.24651,0.086392,0.64958,-0.43143,6.0569
01_trials_model.mod,1,6,16,2,2,1,2,2,0.72093,319.27,1,6,2,12,0.79023,0.75167,0.53726,0.14262,0.30113,-1.2002,5.766
01_trials_model.mod,1,6,17,2,2,1,2,2,0.72093,346.48,1,7,2,13,0.83229,0.78714,0.59758,0.12041,0.26101,-1.3432,5.8478
01_trials_model.mod,1,6,18,1,1,1,1,2,0.72093,446.26,1,8,2,14,0.86449,0.81375,0.64834,0.10163,0.22877,-1.475,6.1009
01_trials_model.mod,1,6,19,2,1,0,1,2,0.72093,429.64,1,9,2,15,0.72356,0.72333,0.22838,0.087257,0.66159,-0.4131,6.0629
01_trials_model.mod,1,6,20,1,2,1,1,2,0.72093,296.72,1,10,2,16,0.77771,0.751,0.52543,0.15018,0.30479,-1.1881,5.6928
01_trials_model.mod,1,6,21,2,1,1,2,2,0.72093,443.75,1,11,2,17,0.82119,0.77364,0.57868,0.126,0.27529,-1.2899,6.0953
01_trials_model.mod,1,6,22,2,1,0,1,2,0.72093,351.5,1,12,2,18,0.68223,0.70917,0.22883,0.10659,0.6427,-0.44208,5.8622
01_trials_model.mod,1,6,23,2,1,1,2,2,0.72093,318.01,1,13,2,19,0.74193,0.73154,0.48481,0.16863,0.32821,-1.1141,5.7621
01_trials_model.mod,1,6,24,2,2,0,1,2,0.72093,539.65,1,14,2,20,0.61795,0.67929,0.22965,0.14198,0.61079,-0.493,6.2909
01_trials_model.mod,1,6,25,1,1,0,2,2,0.72093,402.53,1,15,2,21,0.52891,0.634,0.22155,0.19733,0.57087,-0.56059,5.9978
01_trials_model.mod,1,6,26,1,1,1,1,2,0.72093,415.34,1,16,2,22,0.59296,0.65687,0.34539,0.23709,0.40698,-0.89899,6.0291
01_trials_model.mod,1,6,27,2,1,0,1,2,0.72093,436.06,1,17,2,23,0.51634,0.61824,0.22258,0.20849,0.56105,-0.57795,6.0778
01_trials_model.mod,1,6,28,2,2,0,1,2,0.72093,389.71,1,18,2,1,0.46872,0.58389,0.21413,0.24271,0.53932,-0.61745,5.9654
01_trials_model.mod,1,6,29,2,1,1,2,2,0.72093,441.51,1,19,2,2,0,0.51,NA,NA,0.39141,-0.93801,6.0902
01_trials_model.mod,1,6,30,2,2,0,1,2,0.72093,407.61,1,20,2,3,0,0.51,NA,NA,0.39141,-0.93801,6.0103
01_trials_model.mod,1,6,31,2,1,0,1,2,0.72093,503.01,1,21,2,4,0,0.51,NA,NA,0.39141,-0.93801,6.2206
01_trials_model.mod,1,6,32,2,2,1,2,2,0.72093,600.55,1,22,2,5,0,0.51,NA,NA,0.39141,-0.93801,6.3978
01_trials_model.mod,1,6,33,2,2,1,2,2,0.72093,394.8,1,23,2,6,0,0.51,NA,NA,0.39141,-0.93801,5.9784
01_trials_model.mod,1,6,34,2,1,1,2,2,0.72093,413.33,1,1,2,7,0.7,0.51,NA,NA,0.39141,-0.93801,6.0242
01_trials_model.mod,1,6,35,1,2,1,1,2,0.72093,332.92,1,2,2,8,0.76123,0.755,0.51234,0.1607,0.30589,-1.1845,5.8079
01_trials_model.mod,1,6,36,2,1,1,2,2,0.72093,392.72,1,3,2,9,0.82144,0.83667,0.61351,0.13336,0.22345,-1.4986,5.9731
01_trials_model.mod,1,6,37,1,1,0,2,2,0.72093,380.93,1,4,2,10,0.73358,0.6275,0.29318,0.10648,0.59353,-0.52167,5.9426
01_trials_model.mod,1,6,38,2,1,1,2,2,0.72093,325.74,1,5,2,11,0.77344,0.702,0.49743,0.14571,0.34376,-1.0678,5.7861
01_trials_model.mod,1,6,39,1,2,1,1,2,0.72093,392.9,1,6,2,12,0.81389,0.75167,0.55938,0.12791,0.29517,-1.2202,5.9736
01_trials_model.mod,1,6,40,2,1,1,2,2,0.72093,408.59,1,7,2,13,0.84829,0.78714,0.61421,0.10985,0.25642,-1.3609,6.0127
01_trials_model.mod,1,6,41,1,1,1,1,2,0.72093,351.2,1,8,2,14,0.87476,0.81375,0.65997,0.094487,0.22554,-1.4892,5.8614
01_trials_model.mod,1,6,42,2,2,1,2,2,0.72093,310.78,1,9,2,15,0.8939,0.83444,0.69648,0.082669,0.20104,-1.6042,5.7391
01_trials_model.mod,1,6,43,2,1,1,2,2,0.72093,351.49,1,10,2,16,0.90722,0.851,0.72484,0.074124,0.18156,-1.7061,5.8622
01_trials_model.mod,1,7,1,2,1,1,2,1,0.70175,388.82,1,11,2,17,0.74145,0.77364,0.1955,0.068174,0.70289,-0.35256,5.9631
01_trials_model.mod,1,7,2,2,2,1,2,1,0.70175,321.3,1,12,2,18,0.79953,0.7925,0.56712,0.14219,0.26614,-1.3237,5.7724
01_trials_model.mod,1,7,3,1,1,0,2,1,0.70175,428.86,1,13,2,19,0.63928,0.73154,0.20604,0.11626,0.64802,-0.43384,6.0611
01_trials_model.mod,1,7,4,2,2,1,2,1,0.70175,313.09,1,14,2,20,0.71394,0.75071,0.46873,0.18781,0.321,-1.1363,5.7465
01_trials_model.mod,1,7,5,1,1,1,1,1,0.70175,359.21,1,15,2,21,0.7744,0.76733,0.53027,0.15448,0.29298,-1.2277,5.8839
01_trials_model.mod,1,7,6,2,1,0,1,1,0.70175,403.04,1,16,2,22,0.82045,0.78187,0.58253,0.12748,0.26873,-1.314,5.999
01_trials_model.mod,1,7,7,1,1,1,1,1,0.70175,447.38,1,17,2,23,0.85388,0.79471,0.62477,0.10692,0.24836,-1.3929,6.1034
01_trials_model.mod,1,7,8,1,2,1,1,1,0.70175,419.7,1,18,2,24,0.68873,0.75056,0.20355,0.091994,0.67257,-0.39666,6.0395
01_trials_model.mod,1,7,9,2,2,1,2,1,0.70175,337.26,1,19,2,25,0.75494,0.76368,0.51055,0.16573,0.30094,-1.2009,5.8209
01_trials_model.mod,1,7,10,2,2,0,1,1,0.70175,544.59,1,20,2,26,0.59463,0.7255,0.19974,0.13617,0.63409,-0.45557,6.3
01_trials_model.mod,1,7,11,2,1,0,1,1,0.70175,412.55,1,21,2,27,0.67511,0.73857,0.4317,0.20775,0.33894,-1.0819,6.0224
01_trials_model.mod,1,7,12,2,2,1,2,1,0.70175,314.62,1,22,2,28,0.7414,0.75045,0.49258,0.17181,0.31431,-1.1574,5.7514
01_trials_model.mod,1,7,13,2,1,1,2,1,0.70175,479.33,1,23,2,29,0.58674,0.71783,0.20191,0.14222,0.62781,-0.46552,6.1724
01_trials_model.mod,1,7,14,2,1,1,2,1,0.70175,387.65,1,24,2,1,0.46034,0.68792,0.18021,0.21127,0.5865,-0.53357,5.9601
01_trials_model.mod,1,7,15,2,1,1,2,1,0.70175,549.13,1,25,2,2,0,0.51,NA,NA,0.39141,-0.93801,6.3083
01_trials_model.mod,1,7,16,2,2,1,2,1,0.70175,379.45,1,26,2,3,0,0.51,NA,NA,0.39141,-0.93801,5.9387
01_trials_model.mod,1,7,17,1,2,1,1,1,0.70175,392.87,1,27,2,4,0,0.51,NA,NA,0.39141,-0.93801,5.9735
01_trials_model.mod,1,7,18,1,1,1,1,1,0.70175,441.54,1,28,2,5,0,0.51,NA,NA,0.39141,-0.93801,6.0903
01_trials_model.mod,1,7,19,1,2,1,1,1,0.70175,449.76,1,29,2,6,0,0.51,NA,NA,0.39141,-0.93801,6.1087
01_trials_model.mod,1,7,20,2,2,1,2,1,0.70175,299.44,1,1,1,7,0.7,0.51,NA,NA,0.39141,-0.93801,5.7019
01_trials_model.mod,1,7,21,2,1,1,2,1,0.70175,334.93,1,2,1,8,0.76123,0.755,0.51234,0.1607,0.30589,-1.1845,5.8139
01_trials_model.mod,1,7,22,2,2,1,2,1,0.70175,317.03,1,3,1,9,0.82144,0.83667,0.61351,0.13336,0.22345,-1.4986,5.759
01_trials_model.mod,1,7,23,1,1,0,2,1,0.70175,309.07,1,4,1,10,0.73358,0.6275,0.29318,0.10648,0.59353,-0.52167,5.7336
01_trials_model.mod,1,7,24,2,1,1,2,1,0.70175,349.37,1,5,1,11,0.77344,0.702,0.49743,0.14571,0.34376,-1.0678,5.8561
01_trials_model.mod,1,7,25,2,1,1,2,1,0.70175,335.88,1,6,1,12,0.81389,0.75167,0.55938,0.12791,0.29517,-1.2202,5.8168
01_trials_model.mod,1,7,26,2,1,0,1,1,0.70175,445.29,1,7,1,13,0.71646,0.64429,0.27757,0.10985,0.60338,-0.50522,6.0987
01_trials_model.mod,1,7,27,1,1,0,2,1,0.70175,442.3,1,8,1,14,0.66356,0.56375,0.30245,0.15335,0.5423,-0.61193,6.092
01_trials_model.mod,1,7,28,2,2,1,2,1,0.70175,370.78,1,9,1,15,0.69088,0.61222,0.39553,0.17697,0.42247,-0.86164,5.9156
01_trials_model.mod,1,7,29,1,2,1,1,1,0.70175,316.43,1,10,1,16,0.72595,0.651,0.43647,0.16477,0.39038,-0.94063,5.7571
01_trials_model.mod,1,7,30,1,1,1,1,1,0.70175,456.64,1,11,1,17,0.76265,0.68273,0.47912,0.14911,0.36064,-1.0199,6.1239
01_trials_model.mod,1,7,31,1,2,1,1,1,0.70175,296.98,1,12,1,18,0.79694,0.70917,0.52091,0.13273,0.33331,-1.0987,5.6937
01_trials_model.mod,1,7,32,2,1,0,1,1,0.70175,405.88,1,13,1,19,0.69238,0.65462,0.26428,0.11742,0.60705,-0.49914,6.0061
01_trials_model.mod,1,7,33,2,2,1,2,1,0.70175,318.81,1,14,1,20,0.73551,0.67929,0.45634,0.1641,0.36813,-0.99931,5.7646
01_trials_model.mod,1,7,34,1,1,0,2,1,0.70175,448.94,1,15,1,21,0.6422,0.634,0.25997,0.14484,0.58605,-0.53434,6.1069
01_trials_model.mod,1,7,35,2,2,0,1,1,0.70175,424.05,1,16,1,22,0.57691,0.59438,0.25432,0.18651,0.55445,-0.58979,6.0499
01_trials_model.mod,1,7,36,1,2,0,2,1,0.70175,412.77,1,17,1,23,0.53743,0.55941,0.25056,0.21566,0.53193,-0.63124,6.0229
01_trials_model.mod,1,7,37,2,2,0,1,1,0.70175,377.29,1,18,1,24,0.51888,0.52833,0.2516,0.23329,0.5147,-0.66417,5.933
01_trials_model.mod,1,7,38,2,2,1,2,1,0.70175,482.26,1,19,1,25,0.54202,0.55316,0.2859,0.24157,0.47119,-0.7525,6.1785
01_trials_model.mod,1,7,39,1,1,0,2,1,0.70175,626.32,1,20,1,26,0.52449,0.5255,0.25506,0.23124,0.51337,-0.66675,6.4399
01_trials_model.mod,1,7,40,1,1,1,1,1,0.70175,399.59,1,21,1,27,0.54473,0.5481,0.28604,0.23906,0.4738,-0.74697,5.9904
01_trials_model.mod,1,7,41,2,1,0,1,1,0.70175,384,1,22,1,28,0.52813,0.52318,0.25745,0.23003,0.51224,-0.66896,5.9506
01_trials_model.mod,1,7,42,2,2,1,2,1,0.70175,261.25,1,23,1,29,0.54605,0.54391,0.28562,0.23744,0.47602,-0.74229,5.5655
01_trials_model.mod,1,7,43,2,2,1,2,1,0.70175,261.63,1,24,1,30,0.57038,0.56292,0.30461,0.22944,0.46411,-0.76763,5.5669
01_trials_model.mod,1,7,44,1,2,0,2,1,0.70175,342.28,1,25,1,31,0.54202,0.5404,0.25869,0.21858,0.5219,-0.65028,5.8356
01_trials_model.mod,1,7,45,1,2,0,2,1,0.70175,320.59,1,26,1,32,0.52756,0.51962,0.25822,0.23124,0.51035,-0.67266,5.7702
01_trials_model.mod,1,7,46,1,1,1,1,1,0.70175,432.04,1,27,1,33,0.54257,0.53741,0.28193,0.23769,0.4797,-0.73459,6.0685
01_trials_model.mod,1,7,47,1,1,1,1,1,0.70175,331.62,1,28,1,34,0.56335,0.55393,0.29802,0.23099,0.46962,-0.75583,5.804
01_trials_model.mod,1,7,48,2,2,1,2,1,0.70175,NA,3,29,1,35,0.58833,0.56931,0.31686,0.22171,0.45922,-0.77822,NA
01_trials_model.mod,1,7,49,2,2,0,1,1,0.70175,564.89,1,30,1,36,0.55282,0.55033,0.2603,0.21056,0.52783,-0.63899,6.3366
01_trials_model.mod,1,7,50,1,1,0,2,1,0.70175,361.44,1,31,1,37,0.53043,0.53258,0.25576,0.22641,0.51728,-0.65917,5.8901
01_trials_model.mod,1,7,51,2,2,1,2,1,0.70175,346.69,1,32,1,38,0.54958,0.54719,0.28846,0.23641,0.47407,-0.74641,5.8484
01_trials_model.mod,1,7,52,1,2,0,2,1,0.70175,336.25,1,33,1,39,0.52857,0.53061,0.25548,0.22786,0.51618,-0.6613,5.8179
01_trials_model.mod,1,7,53,2,1,1,2,1,0.70175,408.25,1,34,1,40,0.54667,0.54441,0.2861,0.23724,0.47572,-0.74292,6.0119
01_trials_model.mod,1,7,54,1,2,1,1,1,0.70175,NA,3,35,1,41,0.56852,0.55743,0.30195,0.22916,0.46735,-0.76068,NA
01_trials_model.mod,1,7,55,2,1,1,2,1,0.70175,525.47,1,36,1,42,0.59304,0.56972,0.31972,0.2194,0.45865,-0.77946,6.2643
01_trials_model.mod,1,7,56,2,1,1,2,1,0.70175,534.13,1,37,1,43,0.61921,0.58135,0.33898,0.20846,0.44963,-0.79934,6.2806
01_trials_model.mod,1,7,57,1,2,1,1,1,0.70175,411.93,1,38,1,44,0.6461,0.59237,0.35924,0.19677,0.44032,-0.82025,6.0209
01_trials_model.mod,1,7,58,2,1,1,2,1,0.70175,383.95,1,39,1,45,0.67288,0.60282,0.38006,0.18476,0.43081,-0.84208,5.9505
01_trials_model.mod,1,7,59,1,1,1,1,1,0.70175,328.81,1,40,1,46,0.69883,0.61275,0.40097,0.17281,0.42121,-0.86463,5.7955
01_trials_model.mod,1,7,60,1,1,1,1,1,0.70175,536.67,1,41,1,47,0.72336,0.6222,0.42157,0.16122,0.41161,-0.88768,6.2854
01_trials_model.mod,1,7,61,1,1,1,1,1,0.70175,390.26,1,42,1,48,0.74606,0.63119,0.44149,0.15027,0.40212,-0.911,5.9668
01_trials_model.mod,1,7,62,2,1,1,2,1,0.70175,399.02,1,43,1,49,0.76668,0.63977,0.46046,0.14013,0.39284,-0.93434,5.989
01_trials_model.mod,1,7,63,1,2,0,2,1,0.70175,NA,3,44,1,50,0.67875,0.62523,0.27664,0.13093,0.585,-0.53615,NA
01_trials_model.mod,1,7,64,1,2,1,1,1,0.70175,428.75,1,45,1,51,0.71062,0.63356,0.41791,0.17019,0.40509,-0.90364,6.0609
01_trials_model.mod,1,7,65,1,2,1,1,1,0.70175,330.37,1,46,1,52,0.73893,0.64152,0.44142,0.15596,0.39543,-0.92779,5.8002
01_trials_model.mod,1,7,66,1,1,1,1,1,0.70175,318.79,1,47,1,53,0.76365,0.64915,0.46308,0.14332,0.3861,-0.95165,5.7645
01_trials_model.mod,1,7,67,1,2,0,2,1,0.70175,416.71,1,48,1,54,0.66952,0.63562,0.26798,0.13228,0.5908,-0.52627,6.0324
01_trials_model.mod,1,7,68,1,1,0,2,1,0.70175,344.53,1,49,1,55,0.58508,0.62265,0.2458,0.17431,0.57176,-0.55903,5.8422
01_trials_model.mod,1,7,69,2,2,1,2,1,0.70175,324.41,1,50,1,56,0.63128,0.6302,0.36298,0.21201,0.41781,-0.87273,5.782
01_trials_model.mod,1,7,70,2,2,0,1,1,0.70175,614.75,1,51,1,57,0.55207,0.61784,0.23588,0.19138,0.56506,-0.57083,6.4212
01_trials_model.mod,1,7,71,2,2,1,2,1,0.70175,347.2,1,52,1,58,0.60108,0.62519,0.34167,0.22675,0.42475,-0.85626,5.8499
01_trials_model.mod,1,7,72,2,1,0,1,1,0.70175,385.03,1,53,1,59,0.52694,0.6134,0.2282,0.20487,0.55975,-0.58026,5.9533
01_trials_model.mod,1,7,73,1,1,1,1,1,0.70175,360.7,1,54,1,60,0.57745,0.62056,0.32521,0.23797,0.43039,-0.84307,5.888
01_trials_model.mod,1,7,74,2,2,1,2,1,0.70175,396.1,1,55,1,61,0.62375,0.62745,0.35712,0.21542,0.4205,-0.86631,5.9817
01_trials_model.mod,1,7,75,1,2,1,1,1,0.70175,NA,2,56,1,62,0.66531,0.63411,0.38713,0.19475,0.41078,-0.88971,NA
01_trials_model.mod,1,7,76,1,2,1,1,1,0.70175,445.64,1,57,1,63,0.70189,0.64053,0.41482,0.17619,0.40137,-0.91288,6.0995
01_trials_model.mod,1,7,77,2,1,1,2,1,0.70175,374.1,1,58,1,64,0.73349,0.64672,0.43996,0.15986,0.39238,-0.93553,5.9245
01_trials_model.mod,1,7,78,1,2,0,2,1,0.70175,396.12,1,59,1,65,0.63907,0.63576,0.25806,0.14575,0.58676,-0.53314,5.9817
01_trials_model.mod,1,7,79,2,1,1,2,1,0.70175,385.01,1,60,1,66,0.68072,0.64183,0.40063,0.1879,0.40345,-0.9077,5.9533
01_trials_model.mod,1,7,80,1,1,1,1,1,0.70175,332.01,1,61,1,67,0.71673,0.6477,0.42838,0.16931,0.39414,-0.93106,5.8052
01_trials_model.mod,1,7,81,2,2,0,1,1,0.70175,385.17,1,62,1,68,0.62147,0.63726,0.25158,0.15323,0.5853,-0.53563,5.9537
01_trials_model.mod,1,7,82,1,2,0,2,1,0.70175,341.71,1,63,1,69,0.53681,0.62714,0.22687,0.19576,0.56825,-0.56519,5.834
01_trials_model.mod,1,7,83,1,1,0,2,1,0.70175,490.12,1,64,1,1,0.4661,0.61734,0.20391,0.23357,0.55469,-0.58934,6.1947
01_trials_model.mod,1,7,84,2,1,1,2,1,0.70175,647.78,1,65,1,2,0,0.51,NA,NA,0.39141,-0.93801,6.4736
01_trials_model.mod,1,7,85,2,1,1,2,1,0.70175,355.24,1,66,1,3,0,0.51,NA,NA,0.39141,-0.93801,5.8728
01_trials_model.mod,1,7,86,2,2,1,2,1,0.70175,344.33,1,67,1,4,0,0.51,NA,NA,0.39141,-0.93801,5.8416
01_trials_model.mod,1,7,87,1,2,1,1,1,0.70175,301.01,1,68,1,5,0,0.51,NA,NA,0.39141,-0.93801,5.7071
01_trials_model.mod,1,7,88,1,2,1,1,1,0.70175,NA,3,69,1,6,0,0.51,NA,NA,0.39141,-0.93801,NA
01_trials_model.mod,1,7,89,1,1,1,1,1,0.70175,370.29,1,1,1,7,0.7,0.51,NA,NA,0.39141,-0.93801,5.9143
01_trials_model.mod,1,7,90,1,1,0,2,1,0.70175,459.4,1,2,1,1,0.7588,0.255,0.50556,0.1607,0.31409,-1.1581,6.1299
01_trials_model.mod,1,7,91,1,2,1,1,1,0.70175,359.54,1,3,1,2,0,0.51,NA,NA,0.39141,-0.93801,5.8848
01_trials_model.mod,1,7,92,1,2,1,1,1,0.70175,369.02,1,4,1,3,0,0.51,NA,NA,0.39141,-0.93801,5.9109
01_trials_model.mod,1,7,93,2,1,1,2,1,0.70175,320.86,1,5,1,4,0,0.51,NA,NA,0.39141,-0.93801,5.771
01_trials_model.mod,1,7,94,2,1,1,2,1,0.70175,315.41,1,6,1,5,0,0.51,NA,NA,0.39141,-0.93801,5.7539
01_trials_model.mod,1,7,95,1,2,1,1,1,0.70175,330.2,1,7,1,6,0,0.51,NA,NA,0.39141,-0.93801,5.7997
01_trials_model.mod,1,7,96,1,1,1,1,1,0.70175,490.06,1,1,1,7,0.7,0.51,NA,NA,0.39141,-0.93801,6.1945
01_trials_model.mod,1,7,97,1,1,1,1,1,0.70175,323.48,1,2,1,8,0.76123,0.755,0.51234,0.1607,0.30589,-1.1845,5.7791
01_trials_model.mod,1,7,98,2,1,1,2,1,0.70175,NA,3,3,1,9,0.82144,0.83667,0.61351,0.13336,0.22345,-1.4986,NA
01_trials_model.mod,1,7,99,2,1,0,1,1,0.70175,393.11,1,4,1,10,0.73358,0.6275,0.29318,0.10648,0.59353,-0.52167,5.9741
01_trials_model.mod,1,7,100,1,2,1,1,1,0.70175,309.28,1,5,1,11,0.77344,0.702,0.49743,0.14571,0.34376,-1.0678,5.7342
01_trials_model.mod,1,7,101,1,2,1,1,1,0.70175,406.66,1,6,1,12,0.81389,0.75167,0.55938,0.12791,0.29517,-1.2202,6.008
01_trials_model.mod,1,7,102,1,1,0,2,1,0.70175,416.17,1,7,1,13,0.71646,0.64429,0.27757,0.10985,0.60338,-0.50522,6.0311
01_trials_model.mod,1,7,103,1,2,1,1,1,0.70175,272.16,1,8,1,14,0.75692,0.68875,0.47751,0.15335,0.35713,-1.0297,5.6064
01_trials_model.mod,1,7,104,2,2,1,2,1,0.70175,300.03,1,9,1,15,0.79592,0.72333,0.52762,0.13528,0.32224,-1.1324,5.7039
01_trials_model.mod,1,7,105,2,1,1,2,1,0.70175,480.1,1,10,1,16,0.82962,0.751,0.57396,0.11787,0.29176,-1.2318,6.174
01_trials_model.mod,1,7,106,1,1,1,1,1,0.70175,404.64,1,11,1,17,0.85667,0.77364,0.61454,0.10282,0.26558,-1.3258,6.003
01_trials_model.mod,1,7,107,1,1,0,2,1,0.70175,NA,3,12,1,18,0.724,0.70917,0.23805,0.090748,0.65144,-0.42858,NA
01_trials_model.mod,1,7,108,2,2,1,2,1,0.70175,382.07,1,13,1,19,0.77347,0.73154,0.5121,0.14998,0.32091,-1.1366,5.9456
01_trials_model.mod,1,7,109,2,2,0,1,1,0.70175,NA,2,14,1,20,0.6511,0.67929,0.23868,0.1279,0.61673,-0.48332,NA
01_trials_model.mod,1,7,110,2,1,1,2,1,0.70175,447.02,1,15,1,21,0.70907,0.70067,0.44488,0.18253,0.35771,-1.028,6.1026
01_trials_model.mod,1,7,111,1,2,1,1,1,0.70175,358.73,1,16,1,22,0.75924,0.71937,0.49399,0.15665,0.33344,-1.0983,5.8826
01_trials_model.mod,1,7,112,2,2,1,2,1,0.70175,408.1,1,17,1,23,0.80039,0.73588,0.5383,0.13425,0.3112,-1.1673,6.0115
01_trials_model.mod,1,7,113,2,1,1,2,1,0.70175,297.52,1,18,1,24,0.83267,0.75056,0.57661,0.11588,0.29137,-1.2332,5.6955
01_trials_model.mod,1,7,114,2,2,0,1,1,0.70175,NA,3,19,1,25,0.69418,0.71105,0.23031,0.10146,0.64651,-0.43617,NA
01_trials_model.mod,1,8,1,1,2,1,1,2,0.72857,323.81,1,20,1,26,0.57231,0.6755,0.21852,0.1633,0.60044,-0.51009,5.7802
01_trials_model.mod,1,8,2,1,2,0,2,2,0.72857,318.92,1,21,1,27,0.6418,0.69095,0.39009,0.21771,0.37745,-0.97433,5.7649
01_trials_model.mod,1,8,3,2,1,1,2,2,0.72857,413.64,1,22,1,28,0.53332,0.65955,0.21334,0.18668,0.58509,-0.53599,6.025
01_trials_model.mod,1,8,4,2,1,1,2,2,0.72857,300.7,1,23,1,1,0.45405,0.63087,0.19555,0.23512,0.55942,-0.58085,5.7061
01_trials_model.mod,1,8,5,1,2,1,1,2,0.72857,323.07,1,24,1,2,0,0.51,NA,NA,0.39141,-0.93801,5.7779
01_trials_model.mod,1,8,6,2,2,1,2,2,0.72857,351.14,1,25,1,3,0,0.51,NA,NA,0.39141,-0.93801,5.8612
01_trials_model.mod,1,8,7,2,1,1,2,2,0.72857,334.56,1,26,1,4,0,0.51,NA,NA,0.39141,-0.93801,5.8128
01_trials_model.mod,1,8,8,2,2,1,2,2,0.72857,307.01,1,27,1,5,0,0.51,NA,NA,0.39141,-0.93801,5.7269
01_trials_model.mod,1,8,9,2,1,1,2,2,0.72857,328,1,28,1,6,0,0.51,NA,NA,0.39141,-0.93801,5.793
01_trials_model.mod,1,8,10,1,1,1,1,2,0.72857,340.52,1,1,2,7,0.7,0.51,NA,NA,0.39141,-0.93801,5.8305
01_trials_model.mod,1,8,11,2,2,0,1,2,0.72857,459.38,1,2,2,1,0.7588,0.255,0.50556,0.1607,0.31409,-1.1581,6.1299
01_trials_model.mod,1,8,12,2,2,1,2,2,0.72857,335.71,1,3,2,2,0,0.51,NA,NA,0.39141,-0.93801,5.8162
01_trials_model.mod,1,8,13,1,1,1,1,2,0.72857,306,1,4,2,3,0,0.51,NA,NA,0.39141,-0.93801,5.7236
01_trials_model.mod,1,8,14,1,2,0,2,2,0.72857,382.85,1,5,2,4,0,0.51,NA,NA,0.39141,-0.93801,5.9476
01_trials_model.mod,1,8,15,2,2,1,2,2,0.72857,323.47,1,6,2,5,0,0.51,NA,NA,0.39141,-0.93801,5.7791
01_trials_model.mod,1,8,16,1,1,1,1,2,0.72857,397.03,1,7,2,6,0,0.51,NA,NA,0.39141,-0.93801,5.984
01_trials_model.mod,1,8,17,2,1,1,2,2,0.72857,333.28,1,1,1,7,0.7,0.51,NA,NA,0.39141,-0.93801,5.809
01_trials_model.mod,1,8,18,1,1,1,1,2,0.72857,270.43,1,2,1,8,0.76123,0.755,0.51234,0.1607,0.30589,-1.1845,5.6
01_trials_model.mod,1,8,19,1,2,0,2,2,0.72857,383.03,1,3,1,9,0.82144,0.83667,0.61351,0.13336,0.22345,-1.4986,5.9481
01_trials_model.mod,1,8,20,2,2,1,2,2,0.72857,375.8,1,4,1,10,0.86642,0.8775,0.69064,0.10648,0.17293,-1.7549,5.9291
01_trials_model.mod,1,8,21,2,1,1,2,2,0.72857,319.99,1,5,1,11,0.74049,0.702,0.24651,0.086392,0.64958,-0.43143,5.7683
01_trials_model.mod,1,8,22,1,2,1,1,2,0.72857,357.11,1,6,1,12,0.6753,0.585,0.29662,0.14262,0.5574,-0.58447,5.878
01_trials_model.mod,1,8,23,2,1,1,2,2,0.72857,325.65,1,7,1,1,0.6559,0.50143,0.32734,0.17173,0.50094,-0.69127,5.7858
01_trials_model.mod,1,8,24,1,2,1,1,2,0.72857,294.24,1,8,1,2,0,0.51,NA,NA,0.39141,-0.93801,5.6844
01_trials_model.mod,1,8,25,2,2,1,2,2,0.72857,391.6,1,9,1,3,0,0.51,NA,NA,0.39141,-0.93801,5.9702
01_trials_model.mod,1,8,26,2,1,1,2,2,0.72857,416.56,1,10,1,4,0,0.51,NA,NA,0.39141,-0.93801,6.032
01_trials_model.mod,1,8,27,1,2,0,2,2,0.72857,358.32,1,11,1,5,0,0.51,NA,NA,0.39141,-0.93801,5.8814
01_trials_model.mod,1,8,28,2,1,1,2,2,0.72857,504.68,1,12,1,6,0,0.51,NA,NA,0.39141,-0.93801,6.2239
01_trials_model.mod,1,8,29,2,1,1,2,2,0.72857,NA,3,1,2,7,0.7,0.51,NA,NA,0.39141,-0.93801,NA
01_trials_model.mod,1,8,30,2,1,1,2,2,0.72857,330.06,1,2,2,8,0.76123,0.755,0.51234,0.1607,0.30589,-1.1845,5.7993
01_trials_model.mod,1,8,31,2,2,0,1,2,0.72857,439.57,1,3,2,1,0.73197,0.50333,0.3642,0.13336,0.50244,-0.68828,6.0858
01_trials_model.mod,1,8,32,1,1,1,1,2,0.72857,382.62,1,4,2,2,0,0.51,NA,NA,0.39141,-0.93801,5.947
01_trials_model.mod,1,8,33,2,1,1,2,2,0.72857,455.08,1,5,2,3,0,0.51,NA,NA,0.39141,-0.93801,6.1205
01_trials_model.mod,1,8,34,2,1,1,2,2,0.72857,373.6,1,6,2,4,0,0.51,NA,NA,0.39141,-0.93801,5.9232
01_trials_model.mod,1,8,35,2,2,1,2,2,0.72857,328.07,1,7,2,5,0,0.51,NA,NA,0.39141,-0.93801,5.7932
01_trials_model.mod,1,8,36,1,1,1,1,2,0.72857,357.78,1,8,2,6,0,0.51,NA,NA,0.39141,-0.93801,5.8799
01_trials_model.mod,1,8,37,1,1,1,1,2,0.72857,450.63,1,1,2,7,0.7,0.51,NA,NA,0.39141,-0.93801,6.1106
01_trials_model.mod,1,8,38,1,1,1,1,2,0.72857,330.64,1,2,2,8,0.76123,0.755,0.51234,0.1607,0.30589,-1.1845,5.801
01_trials_model.mod,1,8,39,1,1,0,2,2,0.72857,379.64,1,3,2,1,0.73197,0.50333,0.3642,0.13336,0.50244,-0.68828,5.9392
01_trials_model.mod,1,8,40,2,1,0,1,2,0.72857,416.25,1,4,2,2,0,0.51,NA,NA,0.39141,-0.93801,6.0313
01_trials_model.mod,1,8,41,2,1,0,1,2,0.72857,NA,2,5,2,3,0,0.51,NA,NA,0.39141,-0.93801,NA
01_trials_model.mod,1,8,42,1,1,1,1,2,0.72857,357.1,1,6,2,4,0,0.51,NA,NA,0.39141,-0.93801,5.878
01_trials_model.mod,1,8,43,2,1,1,2,2,0.72857,362.33,1,7,2,5,0,0.51,NA,NA,0.39141,-0.93801,5.8926
01_trials_model.mod,1,8,44,1,2,1,1,2,0.72857,339.05,1,8,2,6,0,0.51,NA,NA,0.39141,-0.93801,5.8261
01_trials_model.mod,1,8,45,2,1,1,2,2,0.72857,339.69,1,1,2,7,0.7,0.51,NA,NA,0.39141,-0.93801,5.828
01_trials_model.mod,1,8,46,1,2,1,1,2,0.72857,525.68,1,2,2,8,0.76123,0.755,0.51234,0.1607,0.30589,-1.1845,6.2647
01_trials_model.mod,1,8,47,1,1,0,2,2,0.72857,701.06,1,3,2,1,0.73197,0.50333,0.3642,0.13336,0.50244,-0.68828,6.5526
01_trials_model.mod,1,8,48,2,2,1,2,2,0.72857,526.25,1,4,2,2,0,0.51,NA,NA,0.39141,-0.93801,6.2658
01_trials_model.mod,1,8,49,1,1,0,2,2,0.72857,364.15,1,5,2,3,0,0.51,NA,NA,0.39141,-0.93801,5.8976
01_trials_model.mod,1,8,50,1,1,1,1,2,0.72857,416.35,1,6,2,4,0,0.51,NA,NA,0.39141,-0.93801,6.0315
01_trials_model.mod,1,8,51,1,2,0,2,2,0.72857,385.62,1,7,2,5,0,0.51,NA,NA,0.39141,-0.93801,5.9549
01_trials_model.mod,1,8,52,2,1,1,2,2,0.72857,NA,3,8,2,6,0,0.51,NA,NA,0.39141,-0.93801,NA
01_trials_model.mod,1,8,53,1,1,1,1,2,0.72857,377.21,1,1,1,7,0.7,0.51,NA,NA,0.39141,-0.93801,5.9328
01_trials_model.mod,1,8,54,1,2,1,1,2,0.72857,362.06,1,2,1,1,0.7588,0.255,0.50556,0.1607,0.31409,-1.1581,5.8918
01_trials_model.mod,1,8,55,1,2,1,1,2,0.72857,498.56,1,3,1,2,0,0.51,NA,NA,0.39141,-0.93801,6.2117
01_trials_model.mod,1,8,56,2,1,1,2,2,0.72857,331.01,1,4,1,3,0,0.51,NA,NA,0.39141,-0.93801,5.8021
01_trials_model.mod,1,8,57,2,2,0,1,2,0.72857,NA,3,5,1,4,0,0.51,NA,NA,0.39141,-0.93801,NA
01_trials_model.mod,1,8,58,1,2,1,1,2,0.72857,364.95,1,6,1,5,0,0.51,NA,NA,0.39141,-0.93801,5.8998
01_trials_model.mod,1,8,59,1,2,0,2,2,0.72857,394.48,1,7,1,6,0,0.51,NA,NA,0.39141,-0.93801,5.9776
01_trials_model.mod,1,8,60,2,2,1,2,2,0.72857,321.73,1,1,2,7,0.7,0.51,NA,NA,0.39141,-0.93801,5.7737
01_trials_model.mod,1,8,61,2,1,1,2,2,0.72857,499.13,1,2,2,8,0.76123,0.755,0.51234,0.1607,0.30589,-1.1845,6.2129
01_trials_model.mod,1,8,62,1,1,1,1,2,0.72857,391.26,1,3,2,9,0.82144,0.83667,0.61351,0.13336,0.22345,-1.4986,5.9694
01_trials_model.mod,1,8,63,1,2,0,2,2,0.72857,NA,3,4,2,10,0.73358,0.6275,0.29318,0.10648,0.59353,-0.52167,NA
01_trials_model.mod,1,8,64,1,2,0,2,2,0.72857,374.71,1,5,2,1,0.70776,0.502,0.35288,0.14571,0.50142,-0.69032,5.9262
01_trials_model.mod,1,8,65,2,2,0,1,2,0.72857,430.16,1,6,2,2,0,0.51,NA,NA,0.39141,-0.93801,6.0642
01_trials_model.mod,1,8,66,2,1,0,1,2,0.72857,369.53,1,7,2,3,0,0.51,NA,NA,0.39141,-0.93801,5.9122
01_trials_model.mod,1,8,67,2,1,1,2,2,0.72857,316.96,1,8,2,4,0,0.51,NA,NA,0.39141,-0.93801,5.7588
01_trials_model.mod,1,8,68,1,2,1,1,2,0.72857,464.12,1,9,2,5,0,0.51,NA,NA,0.39141,-0.93801,6.1401
01_trials_model.mod,1,8,69,1,2,0,2,2,0.72857,393.22,1,10,2,6,0,0.51,NA,NA,0.39141,-0.93801,5.9744
01_trials_model.mod,1,8,70,1,2,1,1,2,0.72857,316.72,1,1,1,7,0.7,0.51,NA,NA,0.39141,-0.93801,5.758
02_trials_model.mod,2,1,1,2,2,1,2,1,0.875,566.89,1,1,2,1,0,0.51,NA,NA,0.50006,-0.69303,6.3402
02_trials_model.mod,2,1,2,2,2,1,2,1,0.875,401.76,1,2,2,2,0,0.51,NA,NA,0.50006,-0.69303,5.9959
02_trials_model.mod,2,1,3,2,2,1,2,1,0.875,379.21,1,3,2,3,0,0.51,NA,NA,0.50006,-0.69303,5.9381
02_trials_model.mod,2,1,4,1,2,1,1,1,0.875,311.22,1,4,2,4,0,0.51,NA,NA,0.50006,-0.69303,5.7405
02_trials_model.mod,2,1,5,1,1,1,1,1,0.875,344.24,1,5,2,5,0,0.51,NA,NA,0.50006,-0.69303,5.8413
02_trials_model.mod,2,1,6,2,2,1,2,1,0.875,361.09,1,1,1,6,0.7,0.51,NA,NA,0.50006,-0.69303,5.8891
02_trials_model.mod,2,1,7,2,1,0,1,1,0.875,505.91,1,2,1,1,0.76652,0.255,0.51243,0.15609,0.3122,-1.1641,6.2264
02_trials_model.mod,2,1,8,2,2,1,2,1,0.875,366.61,1,3,1,2,0,0.51,NA,NA,0.50006,-0.69303,5.9043
02_trials_model.mod,2,1,9,2,2,1,2,1,0.875,410.97,1,4,1,3,0,0.51,NA,NA,0.50006,-0.69303,6.0185
02_trials_model.mod,2,1,10,2,2,1,2,1,0.875,339.56,1,5,1,4,0,0.51,NA,NA,0.50006,-0.69303,5.8277
02_trials_model.mod,2,1,11,2,2,1,2,1,0.875,344.08,1,6,1,5,0,0.51,NA,NA,0.50006,-0.69303,5.8409
02_trials_model.mod,2,1,12,2,2,1,2,1,0.875,386.53,1,1,2,6,0.7,0.51,NA,NA,0.50006,-0.69303,5.9572
02_trials_model.mod,2,1,13,1,1,1,1,1,0.875,384.68,1,2,2,7,0.76889,0.755,0.51931,0.15609,0.30393,-1.191,5.9524
02_trials_model.mod,2,1,14,2,1,0,1,1,0.875,410.07,1,3,2,8,0.83575,0.83667,0.62961,0.12374,0.21863,-1.5204,6.0163
02_trials_model.mod,2,1,15,1,2,1,1,1,0.875,310.87,1,4,2,9,0.76683,0.6275,0.3037,0.092346,0.59777,-0.51455,5.7394
02_trials_model.mod,2,1,16,1,1,0,2,1,0.875,383.56,1,5,2,1,0.74984,0.502,0.37379,0.12471,0.5015,-0.69015,5.9495
02_trials_model.mod,2,1,17,2,1,1,2,1,0.875,280.63,1,6,2,2,0,0.51,NA,NA,0.50006,-0.69303,5.637
02_trials_model.mod,2,1,18,1,1,0,2,1,0.875,976.92,1,7,2,3,0,0.51,NA,NA,0.50006,-0.69303,6.8844
02_trials_model.mod,2,1,19,1,1,1,1,1,0.875,425.76,1,8,2,4,0,0.51,NA,NA,0.50006,-0.69303,6.0539
02_trials_model.mod,2,1,20,2,2,1,2,1,0.875,308.33,1,9,2,5,0,0.51,NA,NA,0.50006,-0.69303,5.7312
02_trials_model.mod,2,1,21,1,2,1,1,1,0.875,280.85,1,1,1,6,0.7,0.51,NA,NA,0.50006,-0.69303,5.6378
02_trials_model.mod,2,1,22,1,2,1,1,1,0.875,408.25,1,2,1,7,0.76889,0.755,0.51931,0.15609,0.30393,-1.191,6.0119
02_trials_model.mod,2,1,23,1,1,0,2,1,0.875,477.12,1,3,1,1,0.75128,0.50333,0.37375,0.12374,0.5025,-0.68815,6.1678
02_trials_model.mod,2,1,24,1,2,1,1,1,0.875,296.9,1,4,1,2,0,0.51,NA,NA,0.50006,-0.69303,5.6934
02_trials_model.mod,2,1,25,1,2,1,1,1,0.875,316.97,1,5,1,3,0,0.51,NA,NA,0.50006,-0.69303,5.7588
02_trials_model.mod,2,1,26,2,2,1,2,1,0.875,295.01,1,6,1,4,0,0.51,NA,NA,0.50006,-0.69303,5.687
02_trials_model.mod,2,1,27,1,2,1,1,1,0.875,327.95,1,7,1,5,0,0.51,NA,NA,0.50006,-0.69303,5.7929
02_trials_model.mod,2,1,28,1,1,1,1,1,0.875,275.08,1,1,1,6,0.7,0.51,NA,NA,0.50006,-0.69303,5.6171
02_trials_model.mod,2,1,29,1,2,1,1,1,0.875,332.68,1,2,1,7,0.76889,0.755,0.51931,0.15609,0.30393,-1.191,5.8072
02_trials_model.mod,2,1,30,1,1,1,1,1,0.875,365.29,1,3,1,8,0.83575,0.83667,0.62961,0.12374,0.21863,-1.5204,5.9007
02_trials_model.mod,2,1,31,2,2,1,2,1,0.875,307.88,1,4,1,9,0.88568,0.8775,0.71543,0.092346,0.16566,-1.7978,5.7297
02_trials_model.mod,2,1,32,1,2,1,1,1,0.875,334.87,1,5,1,10,0.91862,0.902,0.7777,0.0689,0.13072,-2.0347,5.8137
02_trials_model.mod,2,1,33,2,2,1,2,1,0.875,541.3,1,6,1,11,0.93884,0.91833,0.82019,0.053435,0.10725,-2.2326,6.294
02_trials_model.mod,2,1,34,2,1,1,2,1,0.875,408.35,1,7,1,12,0.95075,0.93,0.84827,0.04394,0.091177,-2.395,6.0121
02_trials_model.mod,2,1,35,2,2,1,2,1,0.875,360.46,1,8,1,13,0.95763,0.93875,0.86676,0.038345,0.079838,-2.5278,5.8874
02_trials_model.mod,2,1,36,2,1,1,2,1,0.875,310.08,1,9,1,14,0.96159,0.94556,0.87915,0.035113,0.071556,-2.6373,5.7368
02_trials_model.mod,2,1,37,1,1,0,2,1,0.875,NA,2,10,1,15,0.80705,0.851,0.13909,0.033254,0.78327,-0.24427,NA
02_trials_model.mod,2,1,38,1,2,1,1,1,0.875,490.5,1,11,1,16,0.8656,0.86455,0.68157,0.10582,0.18445,-1.6904,6.1954
02_trials_model.mod,2,1,39,2,2,1,2,1,0.875,415.9,1,12,1,17,0.90412,0.87583,0.73863,0.078327,0.1602,-1.8313,6.0304
02_trials_model.mod,2,1,40,1,1,1,1,1,0.875,268.75,1,13,1,18,0.9282,0.88538,0.77871,0.06024,0.14229,-1.9499,5.5938
02_trials_model.mod,2,1,41,2,2,1,2,1,0.875,388.3,1,14,1,19,0.94277,0.89357,0.80612,0.048936,0.12895,-2.0483,5.9618
02_trials_model.mod,2,1,42,2,2,1,2,1,0.875,331.03,1,15,1,20,0.95145,0.90067,0.82484,0.042094,0.11879,-2.1304,5.8022
02_trials_model.mod,2,1,43,2,1,1,2,1,0.875,516.53,1,16,1,21,0.9566,0.90687,0.83792,0.038019,0.11079,-2.2002,6.2471
02_trials_model.mod,2,1,44,1,1,1,1,1,0.875,365.63,1,17,1,22,0.95968,0.91235,0.84739,0.035601,0.10427,-2.2607,5.9016
02_trials_model.mod,2,1,45,2,1,1,2,1,0.875,352.02,1,18,1,23,0.96157,0.91722,0.85457,0.034152,0.098811,-2.3145,5.8637
02_trials_model.mod,2,1,46,1,1,1,1,1,0.875,405.59,1,19,1,24,0.96277,0.92158,0.86027,0.033264,0.094116,-2.3632,6.0053
02_trials_model.mod,2,1,47,1,1,1,1,1,0.875,482.14,1,20,1,25,0.96357,0.9255,0.86497,0.032701,0.09,-2.4079,6.1782
02_trials_model.mod,2,1,48,1,2,1,1,1,0.875,339.36,1,21,1,26,0.96414,0.92905,0.86898,0.032325,0.08634,-2.4495,5.8271
02_trials_model.mod,2,2,1,2,1,0,1,2,0.84694,313.14,1,22,1,27,0.96456,0.93227,0.87249,0.032061,0.083049,-2.4883,5.7467
02_trials_model.mod,2,2,2,2,2,0,1,2,0.84694,377.6,1,23,1,28,0.76083,0.89174,0.10136,0.031863,0.79805,-0.22559,5.9338
02_trials_model.mod,2,2,3,2,2,1,2,2,0.84694,315.41,1,24,1,29,0.83963,0.89625,0.66766,0.12752,0.1673,-1.788,5.7539
02_trials_model.mod,2,2,4,1,1,1,1,2,0.84694,281.75,1,25,1,30,0.89066,0.9004,0.73739,0.090523,0.14338,-1.9423,5.641
02_trials_model.mod,2,2,5,1,2,1,1,2,0.84694,426.61,1,26,1,31,0.63612,0.86577,0.11636,0.066561,0.73267,-0.31105,6.0559
02_trials_model.mod,2,2,6,2,2,1,2,2,0.84694,284.08,1,27,1,32,0.74606,0.87074,0.54668,0.18608,0.22341,-1.4988,5.6493
02_trials_model.mod,2,2,7,2,2,1,2,2,0.84694,363.72,1,28,1,33,0.82637,0.87536,0.63995,0.13446,0.18982,-1.6617,5.8964
02_trials_model.mod,2,2,8,2,2,1,2,2,0.84694,361.87,1,29,1,34,0.87999,0.87966,0.70944,0.09675,0.16591,-1.7963,5.8913
02_trials_model.mod,2,2,9,2,2,0,1,2,0.84694,378.76,1,30,1,35,0.64181,0.85033,0.12824,0.071571,0.72485,-0.32179,5.9369
02_trials_model.mod,2,2,10,1,1,1,1,2,0.84694,285.59,1,31,1,36,0.74698,0.85516,0.54147,0.18341,0.2347,-1.4494,5.6546
02_trials_model.mod,2,2,11,1,1,1,1,2,0.84694,350.3,1,32,1,37,0.8244,0.85969,0.62924,0.13403,0.20347,-1.5922,5.8588
02_trials_model.mod,2,2,12,1,1,1,1,2,0.84694,387.04,1,33,1,38,0.87681,0.86394,0.69517,0.097674,0.1809,-1.7098,5.9585
02_trials_model.mod,2,2,13,1,1,1,1,2,0.84694,256.6,1,34,1,39,0.91026,0.86794,0.7411,0.073067,0.16508,-1.8013,5.5475
02_trials_model.mod,2,2,14,1,2,0,2,2,0.84694,309.02,1,35,1,40,0.93081,0.87171,0.77171,0.05736,0.154,-1.8708,5.7334
02_trials_model.mod,2,2,15,1,1,0,2,2,0.84694,465.28,1,36,1,41,0.74304,0.8475,0.13795,0.047707,0.7582,-0.2768,6.1426
02_trials_model.mod,2,2,16,2,1,1,2,2,0.84694,NA,2,37,1,1,0.48456,0.82459,0.12774,0.13588,0.65728,-0.41964,NA
02_trials_model.mod,2,2,17,1,1,0,2,2,0.84694,464.17,1,38,1,2,0,0.51,NA,NA,0.50006,-0.69303,6.1403
02_trials_model.mod,2,2,18,1,2,1,1,2,0.84694,449.13,1,39,1,3,0,0.51,NA,NA,0.50006,-0.69303,6.1073
02_trials_model.mod,2,2,19,1,1,1,1,2,0.84694,549.21,1,40,1,4,0,0.51,NA,NA,0.50006,-0.69303,6.3085
02_trials_model.mod,2,2,20,1,1,1,1,2,0.84694,322.32,1,41,1,5,0,0.51,NA,NA,0.50006,-0.69303,5.7755
02_trials_model.mod,2,2,21,1,2,1,1,2,0.84694,341.86,1,1,2,6,0.7,0.51,NA,NA,0.50006,-0.69303,5.8344
02_trials_model.mod,2,2,22,2,2,1,2,2,0.84694,330.69,1,2,2,7,0.76889,0.755,0.51931,0.15609,0.30393,-1.191,5.8012
02_trials_model.mod,2,2,23,1,1,1,1,2,0.84694,267.22,1,3,2,8,0.83575,0.83667,0.62961,0.12374,0.21863,-1.5204,5.5881
02_trials_model.mod,2,2,24,1,1,1,1,2,0.84694,356,1,4,2,9,0.88568,0.8775,0.71543,0.092346,0.16566,-1.7978,5.8749
02_trials_model.mod,2,2,25,1,1,1,1,2,0.84694,353.32,1,5,2,10,0.91862,0.902,0.7777,0.0689,0.13072,-2.0347,5.8674
02_trials_model.mod,2,2,26,1,2,1,1,2,0.84694,321.13,1,6,2,11,0.93884,0.91833,0.82019,0.053435,0.10725,-2.2326,5.7718
02_trials_model.mod,2,2,27,2,1,1,2,2,0.84694,328.46,1,7,2,12,0.95075,0.93,0.84827,0.04394,0.091177,-2.395,5.7944
02_trials_model.mod,2,2,28,2,2,1,2,2,0.84694,256.78,1,8,2,13,0.95763,0.93875,0.86676,0.038345,0.079838,-2.5278,5.5482
02_trials_model.mod,2,2,29,1,1,1,1,2,0.84694,266.98,1,9,2,14,0.96159,0.94556,0.87915,0.035113,0.071556,-2.6373,5.5872
02_trials_model.mod,2,2,30,2,2,1,2,2,0.84694,304.02,1,10,2,15,0.96389,0.951,0.88775,0.033254,0.065284,-2.729,5.7171
02_trials_model.mod,2,2,31,1,2,1,1,2,0.84694,260.56,1,11,2,16,0.96526,0.95545,0.89397,0.032174,0.060368,-2.8073,5.5628
02_trials_model.mod,2,2,32,2,1,1,2,2,0.84694,369.26,1,12,2,17,0.9661,0.95917,0.89868,0.031532,0.056398,-2.8753,5.9115
02_trials_model.mod,2,2,33,2,2,1,2,2,0.84694,295.5,1,13,2,18,0.96665,0.96231,0.90238,0.031137,0.053112,-2.9353,5.6887
02_trials_model.mod,2,2,34,2,1,1,2,2,0.84694,380.44,1,14,2,19,0.96702,0.965,0.9054,0.030882,0.050337,-2.989,5.9413
02_trials_model.mod,2,2,35,1,2,1,1,2,0.84694,364.86,1,15,2,20,0.96728,0.96733,0.90792,0.030708,0.047956,-3.0375,5.8995
02_trials_model.mod,2,2,36,2,2,1,2,2,0.84694,285.85,1,16,2,21,0.96749,0.96937,0.91008,0.030582,0.045885,-3.0816,5.6555
02_trials_model.mod,2,2,37,1,1,1,1,2,0.84694,344.07,1,17,2,22,0.96765,0.97118,0.91196,0.030486,0.044065,-3.1221,5.8408
02_trials_model.mod,2,2,38,1,1,1,1,2,0.84694,308.77,1,18,2,23,0.96779,0.97278,0.91362,0.030409,0.042451,-3.1594,5.7326
02_trials_model.mod,2,2,39,2,2,1,2,2,0.84694,291.59,1,19,2,24,0.9679,0.97421,0.91508,0.030346,0.04101,-3.1939,5.6753
02_trials_model.mod,2,2,40,2,2,1,2,2,0.84694,313.15,1,20,2,25,0.968,0.9755,0.9164,0.030292,0.039715,-3.226,5.7467
02_trials_model.mod,2,2,41,1,1,1,1,2,0.84694,364.93,1,21,2,26,0.96809,0.97667,0.91759,0.030245,0.038543,-3.256,5.8997
02_trials_model.mod,2,2,42,2,1,1,2,2,0.84694,344.74,1,22,2,27,0.96817,0.97773,0.91867,0.030203,0.037479,-3.284,5.8428
02_trials_model.mod,2,2,43,2,2,1,2,2,0.84694,322.82,1,23,2,28,0.96824,0.9787,0.91965,0.030166,0.036508,-3.3102,5.7771
02_trials_model.mod,2,2,44,1,1,1,1,2,0.84694,404.1,1,24,2,29,0.9683,0.97958,0.92055,0.030133,0.035618,-3.3349,6.0017
02_trials_model.mod,2,2,45,2,2,1,2,2,0.84694,396.66,1,25,2,30,0.96836,0.9804,0.92137,0.030103,0.034799,-3.3582,5.9831
02_trials_model.mod,2,2,46,1,2,1,1,2,0.84694,367.93,1,26,2,31,0.96841,0.98115,0.92213,0.030076,0.034044,-3.3801,5.9079
02_trials_model.mod,2,2,47,1,1,0,2,2,0.84694,429.22,1,27,2,32,0.63316,0.94481,0.051868,0.030051,0.78164,-0.24636,6.062
02_trials_model.mod,2,2,48,1,2,0,2,2,0.84694,401.29,1,28,2,1,0.22869,0.91107,0.055585,0.18747,0.59401,-0.52086,5.9947
02_trials_model.mod,2,2,49,2,2,1,2,2,0.84694,386.88,1,29,2,2,0,0.51,NA,NA,0.50006,-0.69303,5.9581
02_trials_model.mod,2,2,50,1,2,1,1,2,0.84694,304.01,1,30,2,3,0,0.51,NA,NA,0.50006,-0.69303,5.7171
02_trials_model.mod,2,2,51,1,1,1,1,2,0.84694,357,1,31,2,4,0,0.51,NA,NA,0.50006,-0.69303,5.8777
02_trials_model.mod,2,2,52,2,1,1,2,2,0.84694,273.03,1,32,2,5,0,0.51,NA,NA,0.50006,-0.69303,5.6096
02_trials_model.mod,2,2,53,1,2,1,1,2,0.84694,308.89,1,1,2,6,0.7,0.51,NA,NA,0.50006,-0.69303,5.733
02_trials_model.mod,2,2,54,2,2,1,2,2,0.84694,268.94,1,2,2,7,0.76889,0.755,0.51931,0.15609,0.30393,-1.191,5.5945
02_trials_model.mod,2,2,55,2,2,1,2,2,0.84694,332.4,1,3,2,8,0.83575,0.83667,0.62961,0.12374,0.21863,-1.5204,5.8063
02_trials_model.mod,2,2,56,2,2,1,2,2,0.84694,279.7,1,4,2,9,0.88568,0.8775,0.71543,0.092346,0.16566,-1.7978,5.6337
02_trials_model.mod,2,2,57,2,1,1,2,2,0.84694,304.76,1,5,2,10,0.91862,0.902,0.7777,0.0689,0.13072,-2.0347,5.7195
02_trials_model.mod,2,2,58,1,2,0,2,2,0.84694,472.61,1,6,2,11,0.80585,0.75167,0.22179,0.053435,0.70281,-0.35267,6.1583
02_trials_model.mod,2,2,59,1,2,1,1,2,0.84694,389.75,1,7,2,12,0.85348,0.78714,0.61966,0.10638,0.25493,-1.3668,5.9655
02_trials_model.mod,2,2,60,2,2,1,2,2,0.84694,263.26,1,8,2,13,0.88959,0.81375,0.677,0.084022,0.22089,-1.5101,5.5731
02_trials_model.mod,2,2,61,2,2,1,2,2,0.84694,299.01,1,9,2,14,0.91507,0.83444,0.72253,0.067062,0.19396,-1.6401,5.7005
02_trials_model.mod,2,2,62,1,1,1,1,2,0.84694,375.51,1,10,2,15,0.93217,0.851,0.75722,0.055101,0.17281,-1.7556,5.9283
02_trials_model.mod,2,2,63,2,2,1,2,2,0.84694,292.99,1,11,2,16,0.9433,0.86455,0.78316,0.047071,0.15612,-1.8571,5.6801
02_trials_model.mod,2,2,64,2,1,0,1,2,0.84694,497.84,1,12,2,17,0.81963,0.7925,0.19014,0.041843,0.73974,-0.30146,6.2103
02_trials_model.mod,2,2,65,2,2,1,2,2,0.84694,804.52,1,13,2,18,0.86621,0.80846,0.64691,0.099916,0.23281,-1.4575,6.6902
02_trials_model.mod,2,2,66,2,2,1,2,2,0.84694,386.47,1,14,2,19,0.89889,0.82214,0.69382,0.078042,0.21043,-1.5586,5.9571
02_trials_model.mod,2,2,67,2,2,1,2,2,0.84694,387.74,1,15,2,20,0.92085,0.834,0.72942,0.062696,0.19244,-1.648,5.9603
02_trials_model.mod,2,2,68,2,2,1,2,2,0.84694,399.9,1,16,2,21,0.93519,0.84437,0.75591,0.052386,0.17794,-1.7263,5.9912
02_trials_model.mod,2,2,69,1,2,0,2,2,0.84694,397.03,1,17,2,22,0.80339,0.79471,0.18655,0.045652,0.73676,-0.30549,5.984
02_trials_model.mod,2,2,70,1,2,1,1,2,0.84694,361.84,1,18,2,23,0.85473,0.80611,0.63274,0.10754,0.23836,-1.434,5.8912
02_trials_model.mod,2,2,71,2,1,1,2,2,0.84694,286.41,1,19,2,24,0.89073,0.81632,0.6801,0.083432,0.21825,-1.5221,5.6574
02_trials_model.mod,2,2,72,1,1,1,1,2,0.84694,270.83,1,20,2,25,0.91494,0.8255,0.71566,0.066529,0.20219,-1.5986,5.6015
02_trials_model.mod,2,2,73,2,1,1,2,2,0.84694,856.59,1,21,2,26,0.93079,0.83381,0.74183,0.055159,0.18929,-1.6645,6.753
02_trials_model.mod,2,2,74,1,1,1,1,2,0.84694,344.35,1,22,2,27,0.941,0.84136,0.76107,0.047718,0.17878,-1.7216,5.8417
02_trials_model.mod,2,2,75,2,1,1,2,2,0.84694,536.95,1,23,2,28,0.94755,0.84826,0.77544,0.042924,0.17001,-1.7719,6.2859
02_trials_model.mod,2,2,76,1,1,1,1,2,0.84694,285.44,1,24,2,29,0.95178,0.85458,0.78648,0.039849,0.16252,-1.817,5.654
02_trials_model.mod,2,2,77,1,1,1,1,2,0.84694,351.76,1,25,2,30,0.95455,0.8604,0.79524,0.037864,0.15598,-1.858,5.8629
02_trials_model.mod,2,2,78,2,2,1,2,2,0.84694,294.99,1,26,2,31,0.95642,0.86577,0.80246,0.036561,0.15017,-1.896,5.6869
02_trials_model.mod,2,2,79,1,2,1,1,2,0.84694,393.03,1,27,2,32,0.95774,0.87074,0.8086,0.035681,0.14493,-1.9315,5.9739
02_trials_model.mod,2,2,80,2,1,1,2,2,0.84694,443.92,1,28,2,33,0.9587,0.87536,0.81397,0.035065,0.14014,-1.9651,6.0956
02_trials_model.mod,2,2,81,2,1,1,2,2,0.84694,321.25,1,29,2,34,0.95944,0.87966,0.81876,0.034613,0.13574,-1.997,5.7722
02_trials_model.mod,2,2,82,1,2,1,1,2,0.84694,343.52,1,30,2,35,0.96003,0.88367,0.82311,0.034265,0.13167,-2.0275,5.8392
02_trials_model.mod,2,2,83,1,1,0,2,2,0.84694,459.04,1,31,2,36,0.79887,0.85516,0.13499,0.033986,0.78373,-0.24369,6.1291
02_trials_model.mod,2,2,84,2,1,1,2,2,0.84694,391.03,1,32,2,37,0.85955,0.85969,0.67114,0.10966,0.19083,-1.6564,5.9688
02_trials_model.mod,2,2,85,1,2,1,1,2,0.84694,340.17,1,33,2,38,0.89915,0.86394,0.72369,0.081168,0.17276,-1.7558,5.8294
02_trials_model.mod,2,2,86,1,2,1,1,2,0.84694,434.18,1,34,2,39,0.92387,0.86794,0.75932,0.062574,0.16007,-1.8321,6.0735
02_trials_model.mod,2,2,87,1,1,0,2,2,0.84694,429.96,1,35,2,40,0.73431,0.84314,0.14087,0.050969,0.75197,-0.28506,6.0637
02_trials_model.mod,2,2,88,1,2,1,1,2,0.84694,278.06,1,36,2,41,0.81342,0.8475,0.61024,0.13998,0.21734,-1.5263,5.6278
02_trials_model.mod,2,2,89,1,2,1,1,2,0.84694,510.99,1,37,2,42,0.86805,0.85162,0.67647,0.10283,0.19478,-1.6359,6.2364
02_trials_model.mod,2,2,90,2,1,1,2,2,0.84694,412.4,1,38,2,43,0.9036,0.85553,0.72347,0.07718,0.17875,-1.7218,6.022
02_trials_model.mod,2,2,91,1,1,1,1,2,0.84694,368.34,1,39,2,44,0.92586,0.85923,0.75529,0.060484,0.1674,-1.7873,5.909
02_trials_model.mod,2,2,92,1,2,1,1,2,0.84694,385.54,1,40,2,45,0.93946,0.86275,0.77642,0.050035,0.15921,-1.8375,5.9546
02_trials_model.mod,2,2,93,1,1,1,1,2,0.84694,279,1,41,2,46,0.94767,0.8661,0.79049,0.043648,0.15306,-1.8769,5.6312
02_trials_model.mod,2,2,94,2,1,1,2,2,0.84694,256.15,1,42,2,47,0.95262,0.86929,0.80011,0.039791,0.14821,-1.9091,5.5458
02_trials_model.mod,2,2,95,1,1,0,2,2,0.84694,435.17,1,43,2,48,0.78843,0.84907,0.13962,0.037466,0.77522,-0.25461,6.0757
02_trials_model.mod,2,2,96,2,2,1,2,2,0.84694,356.02,1,44,2,49,0.85155,0.8525,0.65717,0.11456,0.19983,-1.6103,5.875
02_trials_model.mod,2,2,97,1,2,1,1,2,0.84694,232.83,1,45,2,50,0.89322,0.85578,0.71042,0.084926,0.18221,-1.7026,5.4503
02_trials_model.mod,2,2,98,1,1,0,2,2,0.84694,437.11,1,46,2,51,0.68411,0.83717,0.14154,0.065359,0.73066,-0.3138,6.0802
02_trials_model.mod,2,3,1,1,2,1,1,1,0.875,314.05,1,47,2,1,0.42634,0.81936,0.12155,0.16355,0.63616,-0.45231,5.7496
02_trials_model.mod,2,3,2,2,2,1,2,1,0.875,280.17,1,48,2,2,0,0.51,NA,NA,0.50006,-0.69303,5.6354
02_trials_model.mod,2,3,3,2,2,1,2,1,0.875,347.69,1,49,2,3,0,0.51,NA,NA,0.50006,-0.69303,5.8513
02_trials_model.mod,2,3,4,2,2,1,2,1,0.875,316.17,1,50,2,4,0,0.51,NA,NA,0.50006,-0.69303,5.7563
02_trials_model.mod,2,3,5,2,1,1,2,1,0.875,486.42,1,51,2,5,0,0.51,NA,NA,0.50006,-0.69303,6.1871
02_trials_model.mod,2,3,6,2,1,1,2,1,0.875,426.99,1,1,1,6,0.7,0.51,NA,NA,0.50006,-0.69303,6.0568
02_trials_model.mod,2,3,7,2,1,0,1,1,0.875,349.77,1,2,1,1,0.76652,0.255,0.51243,0.15609,0.3122,-1.1641,5.8573
02_trials_model.mod,2,3,8,2,1,1,2,1,0.875,410.77,1,3,1,2,0,0.51,NA,NA,0.50006,-0.69303,6.018
02_trials_model.mod,2,3,9,1,2,1,1,1,0.875,864.94,1,4,1,3,0,0.51,NA,NA,0.50006,-0.69303,6.7627
02_trials_model.mod,2,3,10,2,1,1,2,1,0.875,322.02,1,5,1,4,0,0.51,NA,NA,0.50006,-0.69303,5.7746
02_trials_model.mod,2,3,11,1,2,1,1,1,0.875,265.67,1,6,1,5,0,0.51,NA,NA,0.50006,-0.69303,5.5823
02_trials_model.mod,2,3,12,2,1,1,2,1,0.875,294,1,1,1,6,0.7,0.51,NA,NA,0.50006,-0.69303,5.6836
02_trials_model.mod,2,3,13,1,1,1,1,1,0.875,336,1,2,1,7,0.76889,0.755,0.51931,0.15609,0.30393,-1.191,5.8171
02_trials_model.mod,2,3,14,1,2,1,1,1,0.875,291.41,1,3,1,8,0.83575,0.83667,0.62961,0.12374,0.21863,-1.5204,5.6747
02_trials_model.mod,2,3,15,1,2,1,1,1,0.875,302.19,1,4,1,9,0.88568,0.8775,0.71543,0.092346,0.16566,-1.7978,5.7111
02_trials_model.mod,2,3,16,1,2,1,1,1,0.875,244.47,1,5,1,10,0.91862,0.902,0.7777,0.0689,0.13072,-2.0347,5.4991
02_trials_model.mod,2,3,17,2,1,1,2,1,0.875,292.28,1,6,1,11,0.93884,0.91833,0.82019,0.053435,0.10725,-2.2326,5.6777
02_trials_model.mod,2,3,18,2,1,0,1,1,0.875,355.54,1,7,1,12,0.81545,0.78714,0.19415,0.04394,0.73415,-0.30904,5.8736
02_trials_model.mod,2,3,19,1,2,0,2,1,0.875,327.75,1,8,1,13,0.70868,0.68875,0.24783,0.10188,0.63376,-0.45608,5.7923
02_trials_model.mod,2,3,20,2,1,1,2,1,0.875,460.01,1,9,1,14,0.76807,0.72333,0.50342,0.15201,0.32846,-1.1133,6.1312
02_trials_model.mod,2,3,21,2,2,1,2,1,0.875,333.72,1,10,1,15,0.81977,0.751,0.56457,0.12412,0.29424,-1.2234,5.8103
02_trials_model.mod,2,3,22,2,2,0,1,1,0.875,506.28,1,11,1,16,0.71775,0.68273,0.25391,0.09985,0.63115,-0.46021,6.2271
02_trials_model.mod,2,3,23,1,1,1,1,1,0.875,238.33,1,12,1,17,0.77176,0.70917,0.4996,0.14775,0.33857,-1.083,5.4737
02_trials_model.mod,2,3,24,2,2,1,2,1,0.875,258.86,1,13,1,18,0.81864,0.73154,0.55247,0.12239,0.31045,-1.1697,5.5563
02_trials_model.mod,2,3,25,2,2,1,2,1,0.875,352.59,1,14,1,19,0.85668,0.75071,0.6,0.10038,0.28522,-1.2545,5.8653
02_trials_model.mod,2,3,26,2,2,1,2,1,0.875,321.07,1,15,1,20,0.8859,0.76733,0.6407,0.082518,0.26317,-1.335,5.7717
02_trials_model.mod,2,3,27,1,1,1,1,1,0.875,257.73,1,16,1,21,0.90742,0.78187,0.67429,0.068796,0.24422,-1.4097,5.5519
02_trials_model.mod,2,3,28,2,1,0,1,1,0.875,326.32,1,17,1,22,0.79887,0.73588,0.23311,0.058693,0.68844,-0.37333,5.7879
02_trials_model.mod,2,3,29,1,1,1,1,1,0.875,282.93,1,18,1,23,0.84235,0.75056,0.58594,0.10966,0.28895,-1.2415,5.6452
02_trials_model.mod,2,3,30,2,1,1,2,1,0.875,325.47,1,19,1,24,0.87546,0.76368,0.62737,0.089248,0.26916,-1.3125,5.7853
02_trials_model.mod,2,3,31,2,2,1,2,1,0.875,295.21,1,20,1,25,0.89971,0.7755,0.66119,0.0737,0.25213,-1.3778,5.6877
02_trials_model.mod,2,3,32,2,2,1,2,1,0.875,505.15,1,21,1,26,0.91698,0.78619,0.68821,0.06231,0.23757,-1.4373,6.2249
02_trials_model.mod,2,3,33,1,1,1,1,1,0.875,271.93,1,22,1,27,0.92904,0.79591,0.70963,0.054204,0.22509,-1.4913,5.6055
02_trials_model.mod,2,3,34,2,2,1,2,1,0.875,375.1,1,23,1,28,0.93738,0.80478,0.72665,0.048542,0.2143,-1.5404,5.9272
02_trials_model.mod,2,3,35,2,2,1,2,1,0.875,336.02,1,24,1,29,0.94315,0.81292,0.74037,0.044623,0.20487,-1.5854,5.8172
02_trials_model.mod,2,3,36,1,1,1,1,1,0.875,302,1,25,1,30,0.94718,0.8204,0.75163,0.041912,0.19652,-1.627,5.7104
02_trials_model.mod,2,3,37,1,1,1,1,1,0.875,252.94,1,26,1,31,0.95004,0.82731,0.76109,0.040021,0.18904,-1.6658,5.5332
02_trials_model.mod,2,3,38,2,2,1,2,1,0.875,307.56,1,27,1,32,0.95213,0.8337,0.76921,0.038678,0.18227,-1.7023,5.7287
02_trials_model.mod,2,3,39,1,1,1,1,1,0.875,190.04,1,28,1,33,0.95369,0.83964,0.77633,0.0377,0.17609,-1.7368,5.2472
02_trials_model.mod,2,3,40,1,1,1,1,1,0.875,383.79,1,29,1,34,0.9549,0.84517,0.78269,0.036967,0.17039,-1.7696,5.9501
02_trials_model.mod,2,3,41,2,2,1,2,1,0.875,319.93,1,30,1,35,0.95587,0.85033,0.78843,0.036397,0.16513,-1.801,5.7681
02_trials_model.mod,2,3,42,2,2,0,1,1,0.875,NA,3,31,1,36,0.82057,0.8229,0.16437,0.03594,0.76497,-0.26792,NA
02_trials_model.mod,2,3,43,2,1,1,2,1,0.875,413.02,1,32,1,37,0.86965,0.82844,0.66363,0.099471,0.21437,-1.54,6.0235
02_trials_model.mod,2,3,44,1,2,1,1,1,0.875,454.1,1,33,1,38,0.90235,0.83364,0.70621,0.076428,0.19894,-1.6147,6.1183
02_trials_model.mod,2,3,45,1,1,0,2,1,0.875,370.95,1,34,1,39,0.73288,0.80912,0.16757,0.061075,0.72655,-0.31945,5.9161
02_trials_model.mod,2,3,46,1,1,1,1,1,0.875,NA,3,35,1,40,0.80629,0.81457,0.58543,0.14065,0.24636,-1.4009,NA
02_trials_model.mod,2,3,47,2,2,1,2,1,0.875,348.19,1,36,1,41,0.85877,0.81972,0.64565,0.10618,0.22543,-1.4897,5.8527
02_trials_model.mod,2,3,48,2,2,0,1,1,0.875,485.05,1,37,1,42,0.67511,0.79757,0.16942,0.081534,0.70089,-0.35541,6.1843
02_trials_model.mod,2,3,49,2,1,1,2,1,0.875,342.14,1,38,1,43,0.76075,0.80289,0.53348,0.16778,0.26957,-1.3109,5.8352
02_trials_model.mod,2,3,50,1,2,1,1,1,0.875,258.8,1,39,1,44,0.82511,0.80795,0.60182,0.12756,0.24591,-1.4028,5.5561
02_trials_model.mod,2,3,51,1,2,1,1,1,0.875,315.54,1,40,1,45,0.87053,0.81275,0.65452,0.097342,0.22774,-1.4795,5.7543
02_trials_model.mod,2,3,52,2,1,1,2,1,0.875,321.62,1,41,1,46,0.90116,0.81732,0.69306,0.076013,0.21405,-1.5416,5.7734
02_trials_model.mod,2,3,53,1,2,1,1,1,0.875,426.96,1,42,1,47,0.92119,0.82167,0.72039,0.06163,0.20368,-1.5912,6.0567
02_trials_model.mod,2,3,54,2,2,1,2,1,0.875,398.62,1,43,1,48,0.93404,0.82581,0.73956,0.052225,0.19568,-1.6313,5.988
02_trials_model.mod,2,3,55,2,1,1,2,1,0.875,382.91,1,44,1,49,0.94221,0.82977,0.75312,0.046192,0.18928,-1.6645,5.9478
02_trials_model.mod,2,3,56,2,2,1,2,1,0.875,330.5,1,45,1,50,0.9474,0.83356,0.76294,0.042356,0.18399,-1.6929,5.8006
02_trials_model.mod,2,3,57,1,1,1,1,1,0.875,270.18,1,46,1,51,0.95074,0.83717,0.77034,0.039917,0.17944,-1.7179,5.5991
02_trials_model.mod,2,3,58,2,1,1,2,1,0.875,316.66,1,47,1,52,0.95291,0.84064,0.77616,0.038353,0.1754,-1.7407,5.7578
02_trials_model.mod,2,3,59,1,1,1,1,1,0.875,219.52,1,48,1,53,0.95438,0.84396,0.78095,0.03733,0.17173,-1.7618,5.3914
02_trials_model.mod,2,3,60,2,2,1,2,1,0.875,269.73,1,49,1,54,0.95541,0.84714,0.78506,0.036642,0.16834,-1.7818,5.5974
02_trials_model.mod,2,3,61,1,1,1,1,1,0.875,261.22,1,50,1,55,0.95616,0.8502,0.78872,0.036159,0.16515,-1.8009,5.5654
02_trials_model.mod,2,3,62,1,1,1,1,1,0.875,325.88,1,51,1,56,0.95675,0.85314,0.79205,0.035803,0.16214,-1.8193,5.7865
02_trials_model.mod,2,3,63,2,1,1,2,1,0.875,350.03,1,52,1,57,0.95723,0.85596,0.79514,0.035528,0.15926,-1.8372,5.858
02_trials_model.mod,2,3,64,1,1,1,1,1,0.875,304.63,1,53,1,58,0.95764,0.85868,0.79805,0.035303,0.15652,-1.8546,5.7191
02_trials_model.mod,2,3,65,1,2,1,1,1,0.875,295.86,1,54,1,59,0.958,0.8613,0.80081,0.035112,0.15388,-1.8716,5.6899
02_trials_model.mod,2,3,66,1,2,1,1,1,0.875,277.77,1,55,1,60,0.95832,0.86382,0.80345,0.034943,0.15135,-1.8882,5.6268
02_trials_model.mod,2,3,67,2,2,1,2,1,0.875,320.77,1,56,1,61,0.95862,0.86625,0.80598,0.034791,0.14891,-1.9044,5.7707
02_trials_model.mod,2,3,68,1,2,1,1,1,0.875,262.11,1,57,1,62,0.9589,0.8686,0.8084,0.03465,0.14655,-1.9204,5.5688
02_trials_model.mod,2,3,69,1,1,1,1,1,0.875,350.42,1,58,1,63,0.95916,0.87086,0.81074,0.034519,0.14428,-1.936,5.8591
02_trials_model.mod,2,3,70,2,1,1,2,1,0.875,306.72,1,59,1,64,0.95941,0.87305,0.81299,0.034396,0.14209,-1.9513,5.7259
02_trials_model.mod,2,3,71,1,2,1,1,1,0.875,288.73,1,60,1,65,0.95964,0.87517,0.81517,0.03428,0.13997,-1.9663,5.6655
02_trials_model.mod,2,3,72,1,2,1,1,1,0.875,270.95,1,61,1,66,0.95987,0.87721,0.81727,0.034169,0.13793,-1.981,5.6019
02_trials_model.mod,2,3,73,2,2,1,2,1,0.875,261.39,1,62,1,67,0.96008,0.87919,0.8193,0.034064,0.13594,-1.9955,5.566
02_trials_model.mod,2,3,74,2,1,0,1,1,0.875,365.08,1,63,1,68,0.78716,0.86524,0.12561,0.033964,0.7875,-0.23889,5.9001
02_trials_model.mod,2,3,75,1,1,1,1,1,0.875,664.24,1,64,1,69,0.85287,0.86734,0.66757,0.11516,0.1867,-1.6782,6.4986
02_trials_model.mod,2,3,76,2,1,0,1,1,0.875,375.35,1,65,1,70,0.59013,0.854,0.12138,0.084306,0.70891,-0.34403,5.9279
02_trials_model.mod,2,3,77,2,1,1,2,1,0.875,333.32,1,66,1,71,0.70677,0.85621,0.50058,0.20768,0.24824,-1.3934,5.8091
02_trials_model.mod,2,3,78,1,2,1,1,1,0.875,412.51,1,67,1,72,0.79579,0.85836,0.59586,0.15291,0.21482,-1.5379,6.0223
02_trials_model.mod,2,3,79,2,1,1,2,1,0.875,330.79,1,68,1,73,0.85761,0.86044,0.66923,0.11111,0.19088,-1.6561,5.8015
02_trials_model.mod,2,3,80,2,1,1,2,1,0.875,401.01,1,69,1,74,0.89778,0.86246,0.72088,0.082079,0.17459,-1.7453,5.994
02_trials_model.mod,2,4,1,1,1,1,1,2,0.87778,284,1,70,1,75,0.92275,0.86443,0.75513,0.063218,0.16372,-1.8096,5.649
02_trials_model.mod,2,4,2,1,2,1,1,2,0.87778,264.18,1,71,1,76,0.72018,0.85225,0.13253,0.051494,0.75369,-0.28278,5.5766
02_trials_model.mod,2,4,3,2,1,1,2,2,0.87778,271.35,1,72,1,1,0.43481,0.84042,0.11279,0.14661,0.64801,-0.43384,5.6034
02_trials_model.mod,2,4,4,1,1,1,1,2,0.87778,356,1,73,1,2,0,0.51,NA,NA,0.50006,-0.69303,5.8749
02_trials_model.mod,2,4,5,2,2,0,1,2,0.87778,513.34,1,74,1,3,0,0.51,NA,NA,0.50006,-0.69303,6.2409
02_trials_model.mod,2,4,6,1,1,1,1,2,0.87778,274.29,1,75,1,4,0,0.51,NA,NA,0.50006,-0.69303,5.6142
02_trials_model.mod,2,4,7,1,2,1,1,2,0.87778,274.97,1,76,1,5,0,0.51,NA,NA,0.50006,-0.69303,5.6167
02_trials_model.mod,2,4,8,2,1,0,1,2,0.87778,311,1,1,2,6,0.7,0.51,NA,NA,0.50006,-0.69303,5.7398
02_trials_model.mod,2,4,9,1,1,1,1,2,0.87778,392.08,1,2,2,7,0.76889,0.755,0.51931,0.15609,0.30393,-1.191,5.9715
02_trials_model.mod,2,4,10,1,1,1,1,2,0.87778,301.23,1,3,2,8,0.83575,0.83667,0.62961,0.12374,0.21863,-1.5204,5.7079
02_trials_model.mod,2,4,11,2,1,1,2,2,0.87778,314.05,1,4,2,9,0.88568,0.8775,0.71543,0.092346,0.16566,-1.7978,5.7496
02_trials_model.mod,2,4,12,1,2,1,1,2,0.87778,343.34,1,5,2,10,0.91862,0.902,0.7777,0.0689,0.13072,-2.0347,5.8387
02_trials_model.mod,2,4,13,2,2,1,2,2,0.87778,354.51,1,6,2,11,0.93884,0.91833,0.82019,0.053435,0.10725,-2.2326,5.8707
02_trials_model.mod,2,4,14,2,1,1,2,2,0.87778,413.64,1,7,2,12,0.95075,0.93,0.84827,0.04394,0.091177,-2.395,6.025
02_trials_model.mod,2,4,15,2,1,1,2,2,0.87778,407.64,1,8,2,13,0.95763,0.93875,0.86676,0.038345,0.079838,-2.5278,6.0104
02_trials_model.mod,2,4,16,2,1,1,2,2,0.87778,375.06,1,9,2,14,0.96159,0.94556,0.87915,0.035113,0.071556,-2.6373,5.9271
02_trials_model.mod,2,4,17,2,1,0,1,2,0.87778,577.74,1,10,2,15,0.80705,0.851,0.13909,0.033254,0.78327,-0.24427,6.3591
02_trials_model.mod,2,4,18,2,2,1,2,2,0.87778,385.74,1,11,2,16,0.8656,0.86455,0.68157,0.10582,0.18445,-1.6904,5.9552
02_trials_model.mod,2,4,19,2,1,1,2,2,0.87778,377.18,1,12,2,17,0.90412,0.87583,0.73863,0.078327,0.1602,-1.8313,5.9327
02_trials_model.mod,2,4,20,2,2,0,1,2,0.87778,407.45,1,13,2,18,0.7366,0.80846,0.16846,0.06024,0.72721,-0.31854,6.0099
02_trials_model.mod,2,4,21,1,2,1,1,2,0.87778,359,1,14,2,19,0.81041,0.82214,0.59375,0.1389,0.23893,-1.4316,5.8833
02_trials_model.mod,2,4,22,2,2,0,1,2,0.87778,410.91,1,15,2,20,0.63855,0.76733,0.18416,0.10424,0.67071,-0.39942,6.0184
02_trials_model.mod,2,4,23,2,1,1,2,2,0.87778,345.09,1,16,2,21,0.72707,0.78187,0.49267,0.18494,0.29506,-1.2206,5.8438
02_trials_model.mod,2,4,24,1,1,1,1,2,0.87778,278.43,1,17,2,22,0.79812,0.79471,0.56682,0.14338,0.26479,-1.3288,5.6292
02_trials_model.mod,2,4,25,2,2,0,1,2,0.87778,426.73,1,18,2,23,0.63879,0.75056,0.19456,0.11002,0.66005,-0.41544,6.0562
02_trials_model.mod,2,4,26,1,1,1,1,2,0.87778,287.22,1,19,2,24,0.72256,0.76368,0.48138,0.18483,0.30947,-1.1729,5.6602
02_trials_model.mod,2,4,27,2,1,1,2,2,0.87778,NA,2,20,2,25,0.79076,0.7755,0.54984,0.14549,0.28215,-1.2653,NA
02_trials_model.mod,2,4,28,2,2,1,2,2,0.87778,362.58,1,21,2,26,0.84267,0.78619,0.60777,0.11347,0.25884,-1.3516,5.8932
02_trials_model.mod,2,4,29,2,2,1,2,2,0.87778,377.36,1,22,2,27,0.88012,0.79591,0.65409,0.089095,0.23957,-1.4289,5.9332
02_trials_model.mod,2,4,30,2,1,1,2,2,0.87778,556.09,1,23,2,28,0.90605,0.80478,0.68968,0.071513,0.22385,-1.4968,6.3209
